"Time (s)","Gyroscope x (rad/s)","Gyroscope y (rad/s)","Gyroscope z (rad/s)","Absolute (rad/s)"
2.209976300E-2,-4.123337194E-2,-1.256854236E-1,-5.497782957E-3,1.323904917E-1
2.425689800E-2,-4.123337194E-2,-1.244636998E-1,-5.497782957E-3,1.312312049E-1
2.641413800E-2,-4.245510325E-2,-1.305723488E-1,-7.941242307E-3,1.375304963E-1
2.857127300E-2,-4.245510325E-2,-1.220202371E-1,-1.038470119E-2,1.296117899E-1
3.072851300E-2,-4.123337194E-2,-1.256854236E-1,-1.038470119E-2,1.326833022E-1
3.288564800E-2,-4.001164436E-2,-1.232419685E-1,-9.162971750E-3,1.298979389E-1
3.504288800E-2,-4.001164436E-2,-1.232419685E-1,-6.719512399E-3,1.297484733E-1
3.720002300E-2,-3.878991306E-2,-1.281288862E-1,-1.832594397E-3,1.338843801E-1
3.935721100E-2,-3.878991306E-2,-1.305723488E-1,1.832594397E-3,1.362246455E-1
4.151439800E-2,-3.878991306E-2,-1.281288862E-1,4.276053514E-3,1.339401115E-1
4.367158600E-2,-3.878991306E-2,-1.293506175E-1,6.719512399E-3,1.352086959E-1
4.582877300E-2,-3.756818548E-2,-1.305723488E-1,9.162971750E-3,1.361780705E-1
4.798596100E-2,-3.512472659E-2,-1.244636998E-1,9.162971750E-3,1.296492153E-1
5.014314800E-2,-3.512472659E-2,-1.183550507E-1,1.038470119E-2,1.238931251E-1
5.230033600E-2,-3.512472659E-2,-1.110246703E-1,1.038470119E-2,1.169105036E-1
5.445752300E-2,-3.756818548E-2,-1.098029464E-1,1.038470119E-2,1.165156540E-1
5.661471100E-2,-3.878991306E-2,-1.085812151E-1,9.162971750E-3,1.156654559E-1
5.877189800E-2,-4.367683083E-2,-1.122464016E-1,7.941242307E-3,1.207061869E-1
6.092908600E-2,-4.612028971E-2,-1.122464016E-1,7.941242307E-3,1.216116735E-1
6.308627300E-2,-5.100720748E-2,-1.183550507E-1,5.497782957E-3,1.289956544E-1
6.524346100E-2,-5.711585656E-2,-1.244636998E-1,5.497782957E-3,1.370534905E-1
6.740064800E-2,-6.322450191E-2,-1.379027218E-1,5.497782957E-3,1.518048877E-1
6.955783600E-2,-6.933315098E-2,-1.403461844E-1,6.719512399E-3,1.566821277E-1
7.171502300E-2,-7.299833745E-2,-1.440113783E-1,7.941242307E-3,1.616511605E-1
7.387221100E-2,-8.032871783E-2,-1.537852138E-1,9.162971750E-3,1.737427839E-1
7.602934600E-2,-8.521563560E-2,-1.635590494E-1,9.162971750E-3,1.846543453E-1
7.818658600E-2,-9.132428467E-2,-1.745546162E-1,1.038470119E-2,1.972746335E-1
8.034372100E-2,-9.498947114E-2,-1.867718995E-1,1.404988952E-2,2.100098604E-1
8.250090800E-2,-9.865466505E-2,-2.002109289E-1,1.649334840E-2,2.238061428E-1
8.465809600E-2,-1.059850380E-1,-2.209803313E-1,2.260199748E-2,2.461218913E-1
8.681528300E-2,-1.084285006E-1,-2.344193608E-1,2.626718581E-2,2.596134463E-1
8.897247100E-2,-1.120936871E-1,-2.478583902E-1,2.993237413E-2,2.736690032E-1
9.112965800E-2,-1.169806048E-1,-2.637408674E-1,3.237583488E-2,2.903306765E-1
9.328684600E-2,-1.243109852E-1,-3.052796721E-1,3.604102135E-2,3.315838574E-1
9.544403300E-2,-1.255327165E-1,-3.272708058E-1,3.970621154E-2,3.527622804E-1
9.760122100E-2,-1.218675226E-1,-3.443750143E-1,4.337139800E-2,3.678680765E-1
9.975840800E-2,-1.218675226E-1,-3.675878942E-1,4.703658819E-2,3.901089510E-1
1.019155960E-1,-1.255327165E-1,-4.030180275E-1,4.825831577E-2,4.248656946E-1
1.040727830E-1,-1.267544478E-1,-4.213439822E-1,4.703658819E-2,4.425041040E-1
1.062299710E-1,-1.267544478E-1,-4.408916533E-1,4.581485689E-2,4.610326898E-1
1.083871580E-1,-1.279761642E-1,-4.604393244E-1,4.703658819E-2,4.802027808E-1
1.105443460E-1,-1.255327165E-1,-4.714348912E-1,4.703658819E-2,4.901242294E-1
1.127014810E-1,-1.255327165E-1,-4.897608459E-1,4.948004708E-2,5.080082914E-1
1.148586690E-1,-1.255327165E-1,-5.044215918E-1,5.070177838E-2,5.222741382E-1
1.170158560E-1,-1.255327165E-1,-5.105302334E-1,5.070177838E-2,5.281763460E-1
1.191730440E-1,-1.267544478E-1,-5.178605914E-1,5.314523727E-2,5.357897894E-1
1.213302830E-1,-1.267544478E-1,-5.178605914E-1,5.314523727E-2,5.357897894E-1
1.234874710E-1,-1.267544478E-1,-5.178605914E-1,5.436696485E-2,5.359123520E-1
1.256446580E-1,-1.267544478E-1,-5.129737258E-1,5.314523727E-2,5.310679332E-1
1.278018460E-1,-1.255327165E-1,-4.995346665E-1,5.192350596E-2,5.176769229E-1
1.299589810E-1,-1.243109852E-1,-4.946477413E-1,5.314523727E-2,5.127904302E-1
1.321162210E-1,-1.230892539E-1,-4.787652791E-1,5.192350596E-2,4.970545315E-1
1.342733560E-1,-1.255327165E-1,-4.738783538E-1,5.070177838E-2,4.928385410E-1
1.364305440E-1,-1.304196268E-1,-5.019781590E-1,5.070177838E-2,5.211161305E-1
1.385877310E-1,-1.291978955E-1,-4.555523992E-1,5.070177838E-2,4.762255295E-1
1.407449190E-1,-1.291978955E-1,-4.482220411E-1,5.070177838E-2,4.692182485E-1
1.429021060E-1,-1.316413581E-1,-4.445568323E-1,4.948004708E-2,4.662708434E-1
1.450592940E-1,-1.328630894E-1,-4.421133697E-1,4.825831577E-2,4.641612837E-1
1.472164810E-1,-1.365282834E-1,-4.408916533E-1,4.581485689E-2,4.638150744E-1
1.493736690E-1,-1.377500147E-1,-4.421133697E-1,4.337139800E-2,4.651025439E-1
1.515308560E-1,-1.438586563E-1,-4.457785785E-1,4.337139800E-2,4.704199530E-1
1.536880440E-1,-1.450803876E-1,-4.543306828E-1,4.337139800E-2,4.789005808E-1
1.558452310E-1,-1.475238502E-1,-4.555523992E-1,4.214967042E-2,4.806951939E-1
1.580024190E-1,-1.499672979E-1,-4.567741454E-1,4.092793912E-2,4.825017166E-1
1.601596060E-1,-1.524107605E-1,-4.506655037E-1,4.214967042E-2,4.776034243E-1
1.623167940E-1,-1.560759544E-1,-4.482220411E-1,4.214967042E-2,4.764864074E-1
1.644739810E-1,-1.597411335E-1,-4.482220411E-1,4.092793912E-2,4.775932622E-1
1.666311690E-1,-1.634063274E-1,-4.408916533E-1,4.092793912E-2,4.719768786E-1
1.687883560E-1,-1.682932526E-1,-4.531089365E-1,4.214967042E-2,4.851875122E-1
1.709454920E-1,-1.731801629E-1,-4.457785785E-1,4.214967042E-2,4.800901005E-1
1.731026790E-1,-1.792888194E-1,-4.543306828E-1,4.214967042E-2,4.902422307E-1
1.752598670E-1,-1.878409237E-1,-4.641045034E-1,4.092793912E-2,5.023467914E-1
1.774171060E-1,-1.927278340E-1,-4.677697122E-1,4.214967042E-2,5.076702831E-1
1.795742420E-1,-2.025016695E-1,-4.848739207E-1,3.970621154E-2,5.269594181E-1
1.817314290E-1,-2.110537887E-1,-5.019781590E-1,3.970621154E-2,5.459875063E-1
1.838886170E-1,-2.196058929E-1,-5.129737258E-1,3.970621154E-2,5.594152079E-1
1.860458040E-1,-2.281579971E-1,-5.215258002E-1,3.970621154E-2,5.706328199E-1
1.882029920E-1,-2.367101014E-1,-5.325213671E-1,3.726275265E-2,5.839513603E-1
1.903601790E-1,-2.464839369E-1,-5.422952175E-1,3.604102135E-2,5.967724770E-1
1.925173670E-1,-2.587012351E-1,-5.532907844E-1,3.481929377E-2,6.117756160E-1
1.946745540E-1,-2.709185183E-1,-5.593994260E-1,3.115410358E-2,6.223304102E-1
1.968317420E-1,-2.831358314E-1,-5.667297840E-1,2.748891525E-2,6.341168564E-1
1.989889290E-1,-2.965748608E-1,-5.765036345E-1,2.504545636E-2,6.487991704E-1
2.011461170E-1,-3.112356067E-1,-5.899426341E-1,2.382372692E-2,6.674335056E-1
2.033033040E-1,-3.258963525E-1,-5.972730517E-1,2.260199748E-2,6.807748389E-1
2.054604400E-1,-3.442223072E-1,-6.180424690E-1,2.015853859E-2,7.077230087E-1
2.076176270E-1,-3.613265157E-1,-6.424770355E-1,1.771507785E-2,7.373244985E-1
2.097748670E-1,-3.808741868E-1,-6.913462281E-1,1.893680729E-2,7.895462975E-1
2.119320020E-1,-3.992001414E-1,-7.353284955E-1,1.771507785E-2,8.368886265E-1
2.140891900E-1,-4.101957083E-1,-7.194460034E-1,1.649334840E-2,8.283327239E-1
2.162464290E-1,-4.272999167E-1,-7.512109876E-1,1.527161989E-2,8.643705161E-1
2.184035650E-1,-4.431824088E-1,-7.780889869E-1,1.649334840E-2,8.956032322E-1
2.205608040E-1,-4.566214085E-1,-7.878628373E-1,1.649334840E-2,9.107705483E-1
2.227179400E-1,-4.700604379E-1,-8.061888218E-1,1.649334840E-2,9.333644852E-1
2.248751270E-1,-4.822777510E-1,-8.245147467E-1,1.893680729E-2,9.553925891E-1
2.270323150E-1,-4.908298552E-1,-8.281798959E-1,2.138026804E-2,9.629397710E-1
2.291895020E-1,-5.006036758E-1,-8.452841640E-1,2.382372692E-2,9.826886221E-1
2.313466900E-1,-5.042688847E-1,-8.440623879E-1,2.748891525E-2,9.836076775E-1
2.335038770E-1,-5.054906011E-1,-8.513928056E-1,2.993237413E-2,9.905990128E-1
2.356610650E-1,-5.042688847E-1,-8.501710296E-1,3.237583488E-2,9.890025694E-1
2.378182520E-1,-5.018253922E-1,-8.599448800E-1,3.359756246E-2,9.962242304E-1
2.399754400E-1,-4.981602132E-1,-8.672752976E-1,3.481929377E-2,1.000770914E0
2.421326270E-1,-4.908298552E-1,-8.733839393E-1,3.604102135E-2,1.002503071E0
2.442898150E-1,-4.810560048E-1,-8.794925809E-1,3.726275265E-2,1.003150334E0
2.464470020E-1,-4.676169753E-1,-8.782708645E-1,3.970621154E-2,9.957921120E-1
2.486041380E-1,-4.541779757E-1,-8.807142973E-1,3.848448023E-2,9.916735160E-1
2.507613250E-1,-4.382954836E-1,-8.807142973E-1,3.970621154E-2,9.845492307E-1
2.529185650E-1,-4.248564541E-1,-8.807142973E-1,4.092793912E-2,9.786908482E-1
2.550757520E-1,-4.077522457E-1,-8.550579548E-1,4.092793912E-2,9.481883231E-1
2.572329400E-1,-3.943132162E-1,-8.452841640E-1,4.092793912E-2,9.336291161E-1
2.593900750E-1,-3.808741868E-1,-8.306233883E-1,4.092793912E-2,9.146996532E-1
2.615472630E-1,-3.698786199E-1,-8.257364631E-1,4.092793912E-2,9.057184972E-1
2.637044500E-1,-3.625482321E-1,-8.184061050E-1,3.970621154E-2,8.959946186E-1
2.658616380E-1,-3.552178741E-1,-8.110756874E-1,4.092793912E-2,8.863964152E-1
2.680188250E-1,-3.491092324E-1,-8.074105382E-1,4.092793912E-2,8.806044115E-1
2.701760130E-1,-3.417788446E-1,-8.122974634E-1,4.092793912E-2,8.822216524E-1
2.723332000E-1,-3.381136656E-1,-8.122974634E-1,4.092793912E-2,8.808082176E-1
2.744903880E-1,-3.381136656E-1,-8.171843290E-1,4.214967042E-2,8.853743125E-1
2.766475750E-1,-3.356702030E-1,-8.086322546E-1,4.459312931E-2,8.766693536E-1
2.788047630E-1,-3.381136656E-1,-8.061888218E-1,4.459312931E-2,8.753569640E-1
2.809619500E-1,-3.430005610E-1,-7.903063297E-1,4.581485689E-2,8.627470549E-1
2.831191380E-1,-3.466657698E-1,-7.854194045E-1,4.948004708E-2,8.599471333E-1
2.852763250E-1,-3.527744114E-1,-7.744238377E-1,5.070177838E-2,8.524979390E-1
2.874335130E-1,-3.588830531E-1,-7.634282708E-1,5.070177838E-2,8.450978883E-1
2.895907000E-1,-3.649916947E-1,-7.487674952E-1,5.192350596E-2,8.346063440E-1
2.917478360E-1,-3.698786199E-1,-7.475457788E-1,5.192350596E-2,8.356619743E-1
2.939050230E-1,-3.735437989E-1,-7.365502119E-1,5.314523727E-2,8.275660702E-1
2.960622110E-1,-3.808741868E-1,-7.328850031E-1,4.948004708E-2,8.274260384E-1
2.982193980E-1,-3.882045746E-1,-7.267763615E-1,4.948004708E-2,8.254422732E-1
3.003765860E-1,-3.979783952E-1,-7.267763615E-1,4.825831577E-2,8.300117756E-1
3.025338250E-1,-4.089739621E-1,-7.389936447E-1,4.703658819E-2,8.459218340E-1
3.046909610E-1,-4.199695289E-1,-7.438805699E-1,5.070177838E-2,8.557472628E-1
3.068481480E-1,-4.321868420E-1,-7.646499872E-1,5.192350596E-2,8.798699448E-1
3.090053360E-1,-4.419606626E-1,-7.878628373E-1,5.314523727E-2,9.049207114E-1
3.111625230E-1,-4.529562294E-1,-8.220712543E-1,5.436696485E-2,9.401735264E-1
3.133197110E-1,-4.639517963E-1,-8.575014472E-1,5.436696485E-2,9.764813199E-1
3.154768980E-1,-4.749473631E-1,-8.953750730E-1,5.558869615E-2,1.015067299E0
3.176340860E-1,-4.883863926E-1,-9.283617735E-1,5.558869615E-2,1.050460353E0
3.197912730E-1,-5.030471683E-1,-9.625701904E-1,5.436696485E-2,1.087452800E0
3.219484610E-1,-5.164861679E-1,-9.906699657E-1,5.558869615E-2,1.118604061E0
3.241056480E-1,-5.287034512E-1,-1.023656607E0,5.803215504E-2,1.153589146E0
3.262628360E-1,-5.433642268E-1,-1.059086800E0,6.291907281E-2,1.192001821E0
3.284200230E-1,-5.629118681E-1,-1.098182201E0,6.780599058E-2,1.235909208E0
3.305771580E-1,-5.775726438E-1,-1.125060201E0,7.513637096E-2,1.266884402E0
3.327343980E-1,-5.946768522E-1,-1.156825185E0,8.246674389E-2,1.303336423E0
3.348915330E-1,-6.081159115E-1,-1.184924960E0,9.101885557E-2,1.334966874E0
3.370487210E-1,-6.252201200E-1,-1.220355153E0,9.957095981E-2,1.374802267E0
3.392059080E-1,-6.411026120E-1,-1.248454928E0,1.081230640E-1,1.407601813E0
3.413630960E-1,-6.545416117E-1,-1.270446062E0,1.178968996E-1,1.434000557E0
3.435202830E-1,-6.692023873E-1,-1.298545837E0,1.288924664E-1,1.466515051E0
3.456774710E-1,-6.814196706E-1,-1.319315195E0,1.386663020E-1,1.491359680E0
3.478346580E-1,-6.948586702E-1,-1.340084553E0,1.472184062E-1,1.516683368E0
3.499918460E-1,-7.082977295E-1,-1.349858403E0,1.533270627E-1,1.532094178E0
3.521490330E-1,-7.229584455E-1,-1.363297462E0,1.606574357E-1,1.551470173E0
3.543062210E-1,-7.339540124E-1,-1.375514746E0,1.692095399E-1,1.568235051E0
3.564634080E-1,-7.473930717E-1,-1.388953805E0,1.753181964E-1,1.586986309E0
3.586205960E-1,-7.608320713E-1,-1.406057954E0,1.814268380E-1,1.608968647E0
3.607777830E-1,-7.742711306E-1,-1.419497013E0,1.887572110E-1,1.627911803E0
3.629349710E-1,-7.901535630E-1,-1.437822938E0,1.960875988E-1,1.652309838E0
3.650921060E-1,-8.035926223E-1,-1.453705430E0,2.046397030E-1,1.673588357E0
3.672493460E-1,-8.158099055E-1,-1.464701056E0,2.107483447E-1,1.689766212E0
3.694064810E-1,-8.268054724E-1,-1.484248757E0,2.180787325E-1,1.712938994E0
3.715636690E-1,-8.353576064E-1,-1.492800832E0,2.266308367E-1,1.725583435E0
3.737209080E-1,-8.439096808E-1,-1.495244265E0,2.339612097E-1,1.732823363E0
3.758780440E-1,-8.573487401E-1,-1.497687697E0,2.400698513E-1,1.742340046E0
3.780352310E-1,-8.695660233E-1,-1.502574682E0,2.449567765E-1,1.753248290E0
3.801924190E-1,-8.793398738E-1,-1.502574682E0,2.510654330E-1,1.758977868E0
3.823496060E-1,-8.891136646E-1,-1.498909473E0,2.522871494E-1,1.760937683E0
3.845067940E-1,-8.952223063E-1,-1.495244265E0,2.547306120E-1,1.761268314E0
3.866639810E-1,-9.025527239E-1,-1.497687697E0,2.559523284E-1,1.767252515E0
3.888211690E-1,-9.111047983E-1,-1.497687697E0,2.571740746E-1,1.771812320E0
3.909783560E-1,-9.147700071E-1,-1.489135623E0,2.596175373E-1,1.766841910E0
3.931355440E-1,-9.172134399E-1,-1.492800832E0,2.596175373E-1,1.771196230E0
3.952927310E-1,-9.147700071E-1,-1.492800832E0,2.596175373E-1,1.769932133E0
3.974499190E-1,-9.086613655E-1,-1.491579056E0,2.559523284E-1,1.765215327E0
3.996071060E-1,-8.988875151E-1,-1.480583549E0,2.522871494E-1,1.750364309E0
4.017642940E-1,-8.854485154E-1,-1.470809698E0,2.474002391E-1,1.734504863E0
4.039214290E-1,-8.683443069E-1,-1.458592415E0,2.437350452E-1,1.714911205E0
4.060786690E-1,-8.500183225E-1,-1.445153356E0,2.412915826E-1,1.693877504E0
4.082358040E-1,-8.243620396E-1,-1.440266490E0,2.388481349E-1,1.676600360E0
4.103929920E-1,-7.913753390E-1,-1.406057954E0,2.351829410E-1,1.630516762E0
4.125501790E-1,-7.596103549E-1,-1.396284223E0,2.315177470E-1,1.606305696E0
4.147073670E-1,-7.241802216E-1,-1.380401731E0,2.290742993E-1,1.575570045E0
4.168645540E-1,-6.924152374E-1,-1.382845163E0,2.241873741E-1,1.562677057E0
4.190217420E-1,-6.618719697E-1,-1.386510372E0,2.217439115E-1,1.552306632E0
4.211789290E-1,-6.313287616E-1,-1.387732029E0,2.205221802E-1,1.540456498E0
4.233361170E-1,-6.056724191E-1,-1.396284223E0,2.205221802E-1,1.537881251E0
4.254933040E-1,-5.836812854E-1,-1.384066820E0,2.205221802E-1,1.518207772E0
4.276504920E-1,-5.616901517E-1,-1.370627880E0,2.205221802E-1,1.497580263E0
4.298076790E-1,-5.445859432E-1,-1.360854030E0,2.205221802E-1,1.482271086E0
4.319648150E-1,-5.287034512E-1,-1.338862896E0,2.217439115E-1,1.456451700E0
4.341220540E-1,-5.189296007E-1,-1.316871762E0,2.278525680E-1,1.433651269E0
4.362792420E-1,-5.067123175E-1,-1.291215420E0,2.351829410E-1,1.406877979E0
4.384364290E-1,-4.908298552E-1,-1.264337420E0,2.437350452E-1,1.377994859E0
4.405935650E-1,-4.749473631E-1,-1.242346287E0,2.510654330E-1,1.353526190E0
4.427507520E-1,-4.553996921E-1,-1.206916094E0,2.608392537E-1,1.316082237E0
4.449079400E-1,-4.370737374E-1,-1.169042468E0,2.681696415E-1,1.276561280E0
4.470651270E-1,-4.187478125E-1,-1.128725410E0,2.767217457E-1,1.235291749E0
4.492223150E-1,-4.016436040E-1,-1.079856157E0,2.840521336E-1,1.186630743E0
4.513795020E-1,-3.869828284E-1,-1.045647740E0,2.913824916E-1,1.152405598E0
4.535366900E-1,-3.735437989E-1,-1.008995891E0,2.974911332E-1,1.116292368E0
4.556938770E-1,-3.576613367E-1,-9.796743989E-1,3.023780584E-1,1.085871102E0
4.578510650E-1,-3.442223072E-1,-9.466876984E-1,3.084867001E-1,1.053503982E0
4.600082520E-1,-3.258963525E-1,-9.185879230E-1,3.121519089E-1,1.023450546E0
4.621654400E-1,-3.075704277E-1,-8.904881477E-1,3.121519089E-1,9.924754523E-1
4.643225750E-1,-2.868010104E-1,-8.636100888E-1,3.133736253E-1,9.624345350E-1
4.664798150E-1,-2.684750557E-1,-8.538362384E-1,3.121519089E-1,9.479208784E-1
4.686369500E-1,-2.501491308E-1,-8.391754627E-1,3.121519089E-1,9.296391015E-1
4.707941900E-1,-2.342666388E-1,-8.245147467E-1,3.109301627E-1,9.118020572E-1
4.729513770E-1,-2.220493406E-1,-8.135191798E-1,3.084867001E-1,8.979328537E-1
4.751085130E-1,-2.073885947E-1,-8.025236130E-1,3.048215210E-1,8.831592938E-1
4.772657520E-1,-1.927278340E-1,-7.854194045E-1,3.011563420E-1,8.629732333E-1
4.794228880E-1,-1.780670881E-1,-7.780889869E-1,2.950477004E-1,8.509897208E-1
4.815800750E-1,-1.646280587E-1,-7.768672705E-1,2.913824916E-1,8.458894195E-1
4.837372630E-1,-1.499672979E-1,-7.658717036E-1,2.889390290E-1,8.321871300E-1
4.858944500E-1,-1.377500147E-1,-7.536544204E-1,2.864955962E-1,8.179546311E-1
4.880516380E-1,-1.267544478E-1,-7.328850031E-1,2.828303874E-1,7.957261751E-1
4.902088250E-1,-1.145371497E-1,-7.145590782E-1,2.779434621E-1,7.752199708E-1
4.923660130E-1,-1.059850380E-1,-6.901245117E-1,2.730565667E-1,7.497096495E-1
4.945231480E-1,-9.865466505E-2,-6.730202436E-1,2.645044625E-1,7.298298445E-1
4.966803880E-1,-9.254601598E-2,-6.571378112E-1,2.571740746E-1,7.117115797E-1
4.988375230E-1,-8.888082206E-2,-6.314814687E-1,2.498437017E-1,6.849018332E-1
5.009947630E-1,-8.765909821E-2,-6.168206930E-1,2.400698513E-1,6.676716396E-1
5.031519500E-1,-8.521563560E-2,-5.899426341E-1,2.302960157E-1,6.390072542E-1
5.053090860E-1,-8.155044913E-2,-5.752819180E-1,2.193004489E-1,6.210414220E-1
5.074662730E-1,-7.910698652E-2,-5.532907844E-1,2.119700760E-1,5.977624281E-1
5.096234610E-1,-7.910698652E-2,-5.374082923E-1,2.021962404E-1,5.796109968E-1
5.117806480E-1,-8.032871783E-2,-5.227475166E-1,1.924224049E-1,5.628001874E-1
5.139378360E-1,-7.910698652E-2,-5.031998754E-1,1.826485693E-1,5.411363320E-1
5.160950230E-1,-7.666353136E-2,-4.946477413E-1,1.753181964E-1,5.303679431E-1
5.182522110E-1,-7.788526267E-2,-4.873173833E-1,1.692095399E-1,5.217051031E-1
5.204093980E-1,-8.032871783E-2,-4.726566374E-1,1.618791670E-1,5.060255572E-1
5.225665860E-1,-8.155044913E-2,-4.641045034E-1,1.533270627E-1,4.955326972E-1
5.247237730E-1,-8.032871783E-2,-4.506655037E-1,1.447749585E-1,4.801165356E-1
5.268809610E-1,-8.277218044E-2,-4.421133697E-1,1.374445707E-1,4.703259248E-1
5.290381480E-1,-8.399390429E-2,-4.262309074E-1,1.276707351E-1,4.527997118E-1
5.311952830E-1,-8.888082206E-2,-4.152353406E-1,1.203403622E-1,4.413637858E-1
5.333524710E-1,-9.498947114E-2,-4.066832364E-1,1.142317131E-1,4.329701360E-1
5.355096580E-1,-1.023198515E-1,-3.944659233E-1,1.105665267E-1,4.222530917E-1
5.376668460E-1,-1.120936871E-1,-3.834703565E-1,1.069013327E-1,4.135727311E-1
5.398240330E-1,-1.194240674E-1,-3.712530732E-1,1.007926911E-1,4.028028287E-1
5.419812210E-1,-1.255327165E-1,-3.468184769E-1,9.590577334E-2,3.811029208E-1
5.441384080E-1,-1.304196268E-1,-3.333794475E-1,9.101885557E-2,3.693718548E-1
5.462955960E-1,-1.365282834E-1,-3.248273432E-1,8.491020650E-2,3.624396753E-1
5.484527830E-1,-1.414151937E-1,-3.199404180E-1,8.002328873E-2,3.588368081E-1
5.506099710E-1,-1.426369250E-1,-3.126100600E-1,7.391463965E-2,3.514736347E-1
5.527671580E-1,-1.426369250E-1,-3.016144931E-1,7.024945319E-2,3.409568602E-1
5.549243460E-1,-1.377500147E-1,-2.955058515E-1,6.780599058E-2,3.330111517E-1
5.570815330E-1,-1.328630894E-1,-2.893971801E-1,6.658425927E-2,3.253256706E-1
5.592387210E-1,-1.279761642E-1,-2.820668221E-1,6.291907281E-2,3.160670822E-1
5.613959080E-1,-1.243109852E-1,-2.832885385E-1,6.169734150E-2,3.154555104E-1
5.635530440E-1,-1.230892539E-1,-2.796233594E-1,6.291907281E-2,3.119278719E-1
5.657102310E-1,-1.218675226E-1,-2.771798968E-1,6.047561392E-2,3.087680167E-1
5.678674190E-1,-1.206457913E-1,-2.735147178E-1,6.169734150E-2,3.052413304E-1
5.700246580E-1,-1.182023361E-1,-2.820668221E-1,6.169734150E-2,3.119936639E-1
5.721818460E-1,-1.182023361E-1,-2.857320011E-1,6.291907281E-2,3.155524971E-1
5.743389810E-1,-1.182023361E-1,-2.955058515E-1,6.291907281E-2,3.244292069E-1
5.764961690E-1,-1.182023361E-1,-2.930623889E-1,6.658425927E-2,3.229408919E-1
5.786533560E-1,-1.206457913E-1,-3.101665974E-1,6.780599058E-2,3.396415426E-1
5.808105440E-1,-1.194240674E-1,-3.003927469E-1,6.902772188E-2,3.305491441E-1
5.829677310E-1,-1.218675226E-1,-3.052796721E-1,7.024945319E-2,3.361284828E-1
5.851249190E-1,-1.255327165E-1,-3.077231348E-1,7.147117704E-2,3.399413475E-1
5.872821060E-1,-1.267544478E-1,-3.077231348E-1,7.391463965E-2,3.409158132E-1
5.894392420E-1,-1.291978955E-1,-3.162752390E-1,7.391463965E-2,3.495504212E-1
5.915964810E-1,-1.267544478E-1,-3.162752390E-1,7.635809481E-2,3.491808636E-1
5.937536170E-1,-1.255327165E-1,-3.248273432E-1,7.635809481E-2,3.565134282E-1
5.959108040E-1,-1.206457913E-1,-3.346011937E-1,7.880155742E-2,3.643117500E-1
5.980679920E-1,-1.120936871E-1,-3.358229101E-1,7.880155742E-2,3.627005749E-1
6.002251790E-1,-1.035415828E-1,-3.443750143E-1,7.880155742E-2,3.681367888E-1
6.023823670E-1,-9.376774728E-2,-3.419315517E-1,7.757982612E-2,3.629438054E-1
6.045395540E-1,-8.643736690E-2,-3.419315517E-1,7.635809481E-2,3.608589241E-1
6.066967420E-1,-7.666353136E-2,-3.443750143E-1,7.513637096E-2,3.607172324E-1
6.088539290E-1,-6.811141968E-2,-3.480401933E-1,7.391463965E-2,3.622630475E-1
6.110111170E-1,-5.955931544E-2,-3.553705812E-1,7.391463965E-2,3.678300368E-1
6.131683040E-1,-5.345066637E-2,-3.627009690E-1,7.147117704E-2,3.735198733E-1
6.153254920E-1,-4.734202102E-2,-3.663661480E-1,7.147117704E-2,3.762626084E-1
6.174826790E-1,-4.489856213E-2,-3.663661480E-1,6.780599058E-2,3.752834764E-1
6.196398670E-1,-4.123337194E-2,-3.639226854E-1,6.414080411E-2,3.718251668E-1
6.217970540E-1,-4.001164436E-2,-3.627009690E-1,6.291907281E-2,3.702860169E-1
6.239542420E-1,-3.756818548E-2,-3.504836559E-1,6.047561392E-2,3.576415266E-1
6.261113770E-1,-3.390299529E-2,-3.394880891E-1,6.047561392E-2,3.464951307E-1
6.282685650E-1,-3.145953640E-2,-3.346011937E-1,5.803215504E-2,3.410504248E-1
6.304257520E-1,-3.023780696E-2,-3.272708058E-1,5.558869615E-2,3.333325794E-1
6.325829400E-1,-3.268126398E-2,-3.223838806E-1,5.436696485E-2,3.285653639E-1
6.347401270E-1,-3.145953640E-2,-3.113883138E-1,5.192350596E-2,3.172513749E-1
6.368973150E-1,-3.145953640E-2,-3.040579557E-1,5.070177838E-2,3.098574079E-1
6.390545020E-1,-3.268126398E-2,-3.003927469E-1,4.948004708E-2,3.061897165E-1
6.412116900E-1,-3.268126398E-2,-2.918406427E-1,4.825831577E-2,2.976035799E-1
6.433688770E-1,-3.145953640E-2,-2.796233594E-1,4.703658819E-2,2.852917212E-1
6.455260650E-1,-2.901607752E-2,-2.661843300E-1,4.459312931E-2,2.714490329E-1
6.476832520E-1,-2.535088919E-2,-2.551887631E-1,4.459312931E-2,2.602931417E-1
6.498404400E-1,-2.412915789E-2,-2.429714650E-1,4.337139800E-2,2.479887643E-1
6.519976270E-1,-2.535088919E-2,-2.405280024E-1,4.337139800E-2,2.457182648E-1
6.541548150E-1,-2.657261863E-2,-2.417497337E-1,4.337139800E-2,2.470427412E-1
6.563119500E-1,-2.535088919E-2,-2.234237939E-1,4.092793912E-2,2.285518660E-1
6.584691380E-1,-2.657261863E-2,-2.197586000E-1,4.092793912E-2,2.251111782E-1
6.606263250E-1,-2.901607752E-2,-2.075413018E-1,4.092793912E-2,2.135191348E-1
6.627835130E-1,-2.901607752E-2,-1.989891976E-1,3.848448023E-2,2.047429821E-1
6.649407000E-1,-3.145953640E-2,-1.892153621E-1,3.726275265E-2,1.953987421E-1
6.670978880E-1,-3.268126398E-2,-1.818849891E-1,3.604102135E-2,1.882794984E-1
6.692550750E-1,-3.512472659E-2,-1.782197952E-1,3.359756246E-2,1.847290936E-1
6.714122630E-1,-3.634645417E-2,-1.684459597E-1,3.237583488E-2,1.753376764E-1
6.735694500E-1,-3.634645417E-2,-1.550069451E-1,2.871064469E-2,1.617792289E-1
6.757266380E-1,-4.001164436E-2,-1.452330947E-1,2.748891525E-2,1.531313944E-1
6.778838250E-1,-3.878991306E-2,-1.330158114E-1,2.626718581E-2,1.410242125E-1
6.800410130E-1,-4.123337194E-2,-1.293506175E-1,2.382372692E-2,1.378381050E-1
6.821982000E-1,-4.001164436E-2,-1.195767820E-1,2.382372692E-2,1.283242317E-1
6.843553360E-1,-4.001164436E-2,-1.134681329E-1,2.382372692E-2,1.226520234E-1
6.865125750E-1,-4.001164436E-2,-1.073594838E-1,2.382372692E-2,1.170237601E-1
6.886697110E-1,-3.878991306E-2,-1.036942974E-1,2.504545636E-2,1.135096452E-1
6.908268980E-1,-3.634645417E-2,-9.758564830E-2,2.504545636E-2,1.071041473E-1
6.929841380E-1,-3.268126398E-2,-8.536835015E-2,2.504545636E-2,9.477919132E-2
6.951412730E-1,-2.779434808E-2,-8.170316368E-2,2.626718581E-2,9.021029759E-2
6.972984610E-1,-2.168569900E-2,-7.315105945E-2,2.504545636E-2,8.030331204E-2
6.994556480E-1,-1.924224012E-2,-6.948586553E-2,2.504545636E-2,7.632708692E-2
7.016128360E-1,-1.435532235E-2,-6.337722391E-2,2.504545636E-2,6.964210418E-2
7.037700230E-1,-1.191186346E-2,-5.726857483E-2,2.504545636E-2,6.363062972E-2
7.059272110E-1,-8.246674202E-3,-4.871646687E-2,2.260199748E-2,5.433371026E-2
7.080843980E-1,-4.581485875E-3,-4.627300799E-2,1.771507785E-2,4.975947412E-2
7.102415330E-1,1.527161920E-3,-4.016435891E-2,1.404988952E-2,4.257824968E-2
7.123987730E-1,3.970621154E-3,-3.894263133E-2,1.160643063E-2,4.082895541E-2
7.145559080E-1,7.635809947E-3,-3.527744114E-2,7.941242307E-3,3.695763489E-2
7.167130960E-1,1.007926930E-2,-3.527744114E-2,5.497782957E-3,3.709872155E-2
7.188702830E-1,1.496618707E-2,-3.405570984E-2,4.276053514E-3,3.744412853E-2
7.210274710E-1,1.740964688E-2,-3.161225095E-2,6.108647794E-4,3.609436758E-2
7.231846580E-1,2.107483521E-2,-2.794706449E-2,-3.054323839E-3,3.513567968E-2
7.253418460E-1,2.474002354E-2,-2.794706449E-2,-5.497782957E-3,3.772708305E-2
7.274990330E-1,2.718348242E-2,-3.039052337E-2,-6.719512399E-3,4.132405443E-2
7.296562210E-1,2.962694131E-2,-2.794706449E-2,-6.719512399E-3,4.127887973E-2
7.318134080E-1,3.207040206E-2,-3.161225095E-2,-7.941242307E-3,4.572645217E-2
7.339705960E-1,3.451386094E-2,-3.527744114E-2,-7.941242307E-3,4.998767628E-2
7.361277830E-1,3.817904741E-2,-3.161225095E-2,-7.941242307E-3,5.019997411E-2
7.382849710E-1,4.062250629E-2,-4.138609022E-2,-7.941242307E-3,5.853255342E-2
7.404421060E-1,4.550942779E-2,-2.794706449E-2,-7.941242307E-3,5.399268247E-2
7.425992940E-1,5.039634556E-2,-3.283398226E-2,-7.941242307E-3,6.067063017E-2
7.447565330E-1,5.161807314E-2,-3.649916872E-2,-9.162971750E-3,6.387937729E-2
7.469137210E-1,5.528326333E-2,-4.016435891E-2,-9.162971750E-3,6.894472411E-2
7.490708560E-1,5.528326333E-2,-4.382954910E-2,-9.162971750E-3,7.114231251E-2
7.512280440E-1,6.139190868E-2,-4.505127668E-2,-9.162971750E-3,7.669774464E-2
7.533852310E-1,6.383536756E-2,-4.382954910E-2,-1.038470119E-2,7.812698346E-2
7.555424190E-1,6.627883017E-2,-5.238165334E-2,-1.160643063E-2,8.527268125E-2
7.576996060E-1,6.750056148E-2,-5.115992576E-2,-1.160643063E-2,8.548902289E-2
7.598567940E-1,7.116574794E-2,-4.749473557E-2,-1.404988952E-2,8.670474602E-2
7.620139810E-1,7.116574794E-2,-4.260781780E-2,-1.649334840E-2,8.456961842E-2
7.641711690E-1,7.238747925E-2,-4.260781780E-2,-1.771507785E-2,8.584402875E-2
7.663283040E-1,7.483093441E-2,-3.405570984E-2,-2.015853859E-2,8.465120669E-2
7.684854920E-1,7.849612087E-2,-2.061668597E-2,-2.138026804E-2,8.392737690E-2
7.706426790E-1,7.849612087E-2,-1.572976820E-2,-2.260199748E-2,8.318603783E-2
7.727998670E-1,7.971785218E-2,-5.955931731E-3,-2.504545636E-2,8.377161788E-2
7.749570540E-1,7.971785218E-2,-3.512472380E-3,-2.504545636E-2,8.363341618E-2
7.771142420E-1,8.093958348E-2,-1.069013379E-3,-2.260199748E-2,8.404290127E-2
7.792714290E-1,8.093958348E-2,-2.290742937E-3,-2.260199748E-2,8.406731807E-2
7.814286170E-1,8.093958348E-2,3.817904973E-3,-2.138026804E-2,8.380279490E-2
7.835858040E-1,8.093958348E-2,6.261364091E-3,-1.893680729E-2,8.336080329E-2
7.857429920E-1,8.093958348E-2,5.039634649E-3,-1.771507785E-2,8.300866265E-2
7.879001790E-1,8.338304609E-2,5.039634649E-3,-1.649334840E-2,8.514787628E-2
7.900573150E-1,8.093958348E-2,3.817904973E-3,-1.527161989E-2,8.245613953E-2
7.922145020E-1,8.093958348E-2,7.483093534E-3,-1.527161989E-2,8.270692375E-2
7.943717420E-1,8.093958348E-2,8.704823442E-3,-1.527161989E-2,8.282639977E-2
7.965288770E-1,8.338304609E-2,1.114828233E-2,-1.649334840E-2,8.572658348E-2
7.986860650E-1,8.338304609E-2,6.261364091E-3,-1.527161989E-2,8.500093782E-2
8.008432520E-1,8.460476995E-2,2.596175298E-3,-1.527161989E-2,8.601121786E-2
8.030004400E-1,8.704823256E-2,6.261364091E-3,-1.527161989E-2,8.859922034E-2
8.051576270E-1,8.826996386E-2,3.817904973E-3,-1.527161989E-2,8.966261926E-2
8.073148150E-1,9.071341902E-2,1.527161949E-4,-1.649334840E-2,9.220074975E-2
8.094720020E-1,8.826996386E-2,-5.955931731E-3,-1.771507785E-2,9.022684537E-2
8.116291900E-1,9.071341902E-2,-3.512472380E-3,-1.771507785E-2,9.249370701E-2
8.137863250E-1,9.193515033E-2,-4.734201822E-3,-1.893680729E-2,9.398450512E-2
8.159435650E-1,9.071341902E-2,-2.290742937E-3,-1.771507785E-2,9.245537235E-2
8.181007520E-1,9.071341902E-2,2.596175298E-3,-1.893680729E-2,9.270527055E-2
8.202578880E-1,8.704823256E-2,-2.290742937E-3,-1.893680729E-2,8.911366318E-2
8.224150750E-1,8.582650125E-2,1.527161949E-4,-1.893680729E-2,8.789092279E-2
8.245722630E-1,8.582650125E-2,1.970038936E-2,-1.893680729E-2,9.007161777E-2
8.267294500E-1,8.216131479E-2,1.114828233E-2,-1.893680729E-2,8.504921232E-2
8.288866380E-1,7.849612087E-2,9.926552884E-3,-1.771507785E-2,8.108021600E-2
8.310438250E-1,7.849612087E-2,9.926552884E-3,-1.771507785E-2,8.108021600E-2
8.332010130E-1,7.483093441E-2,1.114828233E-2,-1.649334840E-2,7.743373609E-2
8.353582000E-1,7.238747925E-2,8.704823442E-3,-1.649334840E-2,7.475126517E-2
8.375153880E-1,6.750056148E-2,8.704823442E-3,-1.527161989E-2,6.975186109E-2
8.396725750E-1,6.505709887E-2,8.704823442E-3,-1.527161989E-2,6.739007670E-2
8.418297110E-1,6.261363626E-2,5.039634649E-3,-1.527161989E-2,6.464586403E-2
8.439869500E-1,5.772672221E-2,2.596175298E-3,-1.649334840E-2,6.009280427E-2
8.461440860E-1,5.650499091E-2,9.926552884E-3,-1.649334840E-2,5.969406161E-2
8.483012730E-1,5.161807314E-2,-5.955931731E-3,-1.527161989E-2,5.415829550E-2
8.504584610E-1,5.039634556E-2,-4.734201822E-3,-1.649334840E-2,5.323753238E-2
8.526156480E-1,4.795288667E-2,1.374445739E-3,-1.282816008E-2,4.965813259E-2
8.547728360E-1,4.550942779E-2,5.039634649E-3,-1.160643063E-2,4.723574035E-2
8.569300230E-1,4.306596518E-2,7.483093534E-3,-9.162971750E-3,4.466132663E-2
8.590872110E-1,4.062250629E-2,5.039634649E-3,-7.941242307E-3,4.169711338E-2
8.612443980E-1,3.817904741E-2,3.817904973E-3,-6.719512399E-3,3.895340686E-2
8.634015860E-1,3.573558852E-2,2.596175298E-3,-5.497782957E-3,3.624911076E-2
8.655587730E-1,3.329212964E-2,8.704823442E-3,-6.719512399E-3,3.506125631E-2
8.677159080E-1,2.840521187E-2,6.261364091E-3,-5.497782957E-3,2.960213436E-2
8.698730960E-1,2.596175298E-2,7.483093534E-3,-5.497782957E-3,2.757235797E-2
8.720302830E-1,2.229656465E-2,1.114828233E-2,-6.719512399E-3,2.581807199E-2
8.741874710E-1,1.985310577E-2,1.237001177E-2,-6.719512399E-3,2.433751932E-2
8.763446580E-1,1.985310577E-2,1.603520103E-2,-7.941242307E-3,2.672708009E-2
8.785018460E-1,1.985310577E-2,1.725693047E-2,-7.941242307E-3,2.747745962E-2
8.806590330E-1,1.618791744E-2,1.237001177E-2,-7.941242307E-3,2.186616545E-2
8.828162210E-1,1.863137633E-2,1.970038936E-2,-5.497782957E-3,2.766693228E-2
8.849734080E-1,1.618791744E-2,2.092211880E-2,-6.719512399E-3,2.729350789E-2
8.871305960E-1,1.740964688E-2,2.458730713E-2,-6.719512399E-3,3.086718846E-2
8.892877830E-1,1.374445762E-2,1.847865991E-2,-6.719512399E-3,2.399005699E-2
8.914449710E-1,1.374445762E-2,2.092211880E-2,-7.941242307E-3,2.626230188E-2
8.936021060E-1,1.496618707E-2,2.214384824E-2,-7.941242307E-3,2.788189555E-2
8.957592940E-1,1.496618707E-2,1.725693047E-2,-1.038470119E-2,2.509243757E-2
8.979164810E-1,1.496618707E-2,1.970038936E-2,-1.038470119E-2,2.683158801E-2
9.000736690E-1,1.740964688E-2,2.214384824E-2,-1.038470119E-2,3.002145630E-2
9.022308560E-1,1.863137633E-2,1.970038936E-2,-1.160643063E-2,2.949479203E-2
9.043880440E-1,1.863137633E-2,1.481347065E-2,-1.160643063E-2,2.648162247E-2
9.065452310E-1,2.107483521E-2,2.092211880E-2,-1.038470119E-2,3.145990707E-2
9.087024190E-1,1.985310577E-2,1.237001177E-2,-1.038470119E-2,2.559306583E-2
9.108596060E-1,2.107483521E-2,1.237001177E-2,-1.038470119E-2,2.655198466E-2
9.130167940E-1,2.107483521E-2,9.926552884E-3,-9.162971750E-3,2.503288203E-2
9.151739810E-1,1.985310577E-2,-1.069013379E-3,-7.941242307E-3,2.140915523E-2
9.173311170E-1,2.107483521E-2,8.704823442E-3,-7.941242307E-3,2.414510219E-2
9.194883560E-1,2.107483521E-2,5.039634649E-3,-6.719512399E-3,2.268696638E-2
9.216454920E-1,2.107483521E-2,1.374445739E-3,-5.497782957E-3,2.182345980E-2
9.238026790E-1,2.351829410E-2,6.261364091E-3,-4.276053514E-3,2.471031103E-2
9.259598670E-1,2.351829410E-2,-2.290742937E-3,-4.276053514E-3,2.401337740E-2
9.281170540E-1,2.474002354E-2,-4.734201822E-3,-3.054323839E-3,2.537341770E-2
9.302742420E-1,2.840521187E-2,-2.290742937E-3,-5.497782957E-3,2.902290788E-2
9.324314290E-1,2.840521187E-2,-5.955931731E-3,-3.054323839E-3,2.918318142E-2
9.345886170E-1,3.084867075E-2,-7.177661173E-3,-3.054323839E-3,3.181961975E-2
9.367458040E-1,2.962694131E-2,-1.206457894E-2,-3.054323839E-3,3.213469481E-2
9.389029400E-1,3.207040206E-2,-4.734201822E-3,-4.276053514E-3,3.269874598E-2
9.410601790E-1,3.451386094E-2,-2.290742937E-3,-5.497782957E-3,3.502398775E-2
9.432173150E-1,3.451386094E-2,-1.069013379E-3,-7.941242307E-3,3.543180374E-2
9.453745020E-1,4.062250629E-2,2.596175298E-3,-7.941242307E-3,4.147277990E-2
9.475316900E-1,4.428769648E-2,6.261364091E-3,-1.038470119E-2,4.591782615E-2
9.496888770E-1,4.550942779E-2,1.237001177E-2,-1.160643063E-2,4.856783339E-2
9.518460650E-1,4.428769648E-2,1.603520103E-2,-1.282816008E-2,4.881689690E-2
9.540032520E-1,4.550942779E-2,1.970038936E-2,-1.160643063E-2,5.093056636E-2
9.561604400E-1,4.550942779E-2,1.725693047E-2,-1.282816008E-2,5.033360068E-2
9.583176270E-1,4.428769648E-2,1.725693047E-2,-1.160643063E-2,4.892760919E-2
9.604748150E-1,4.306596518E-2,1.725693047E-2,-1.160643063E-2,4.782455685E-2
9.626320020E-1,4.184423760E-2,2.092211880E-2,-1.160643063E-2,4.820149901E-2
9.647891900E-1,3.817904741E-2,1.847865991E-2,-1.160643063E-2,4.397510392E-2
9.669463250E-1,3.695731983E-2,1.603520103E-2,-1.038470119E-2,4.160304291E-2
9.691035130E-1,3.817904741E-2,1.725693047E-2,-1.038470119E-2,4.316576571E-2
9.712607000E-1,3.695731983E-2,1.481347065E-2,-1.038470119E-2,4.114759313E-2
9.734178880E-1,3.695731983E-2,1.725693047E-2,-1.038470119E-2,4.208903844E-2
9.755750750E-1,3.573558852E-2,1.114828233E-2,-1.038470119E-2,3.884788932E-2
9.777322630E-1,3.451386094E-2,1.847865991E-2,-9.162971750E-3,4.020730681E-2
9.798894500E-1,3.451386094E-2,1.603520103E-2,-7.941242307E-3,3.887669737E-2
9.820466380E-1,3.329212964E-2,2.214384824E-2,-5.497782957E-3,4.036014777E-2
9.842038250E-1,3.695731983E-2,2.092211880E-2,-5.497782957E-3,4.282293966E-2
9.863610130E-1,3.573558852E-2,1.603520103E-2,-6.108647794E-4,3.917311725E-2
9.885182000E-1,3.573558852E-2,2.092211880E-2,6.108647794E-4,4.141425476E-2
9.906753880E-1,3.573558852E-2,1.847865991E-2,1.832594397E-3,4.027221823E-2
9.928325230E-1,3.695731983E-2,2.336557768E-2,3.054323839E-3,4.383061263E-2
9.949897630E-1,3.817904741E-2,2.947422490E-2,4.276053514E-3,4.842162975E-2
9.971468980E-1,3.817904741E-2,4.046979174E-2,5.497782957E-3,5.590768571E-2
9.993040860E-1,3.940077871E-2,3.191768378E-2,5.497782957E-3,5.100377945E-2
1.001461273E0,3.695731983E-2,3.558287397E-2,5.497782957E-3,5.159660867E-2
1.003618461E0,3.451386094E-2,3.680460155E-2,3.054323839E-3,5.054813732E-2
1.005775648E0,3.329212964E-2,3.680460155E-2,1.832594397E-3,4.966188673E-2
1.007932836E0,3.329212964E-2,3.558287397E-2,1.832594397E-3,4.876335938E-2
1.010090023E0,3.084867075E-2,3.191768378E-2,6.108647794E-4,4.439315466E-2
1.012247211E0,2.962694131E-2,2.947422490E-2,-6.108647794E-4,4.179543923E-2
1.014404346E0,2.596175298E-2,2.458730713E-2,-3.054323839E-3,3.588700578E-2
1.016561533E0,2.474002354E-2,2.580903657E-2,-3.054323839E-3,3.588180636E-2
1.018718721E0,2.107483521E-2,2.336557768E-2,-5.497782957E-3,3.194251895E-2
1.020875908E0,2.107483521E-2,2.580903657E-2,-5.497782957E-3,3.377100332E-2
1.023033096E0,1.863137633E-2,2.580903657E-2,-6.719512399E-3,3.253285108E-2
1.025190283E0,1.740964688E-2,3.069595434E-2,-7.941242307E-3,3.617182255E-2
1.027347471E0,1.618791744E-2,2.214384824E-2,-6.719512399E-3,2.824093718E-2
1.029504658E0,1.496618707E-2,2.214384824E-2,-5.497782957E-3,2.728667051E-2
1.031661846E0,1.496618707E-2,1.603520103E-2,-3.054323839E-3,2.214595497E-2
1.033819033E0,1.252272818E-2,1.237001177E-2,-4.276053514E-3,1.811409799E-2
1.035976221E0,1.374445762E-2,8.704823442E-3,-3.054323839E-3,1.655333684E-2
1.038133356E0,1.496618707E-2,1.237001177E-2,-3.054323839E-3,1.965535145E-2
1.040290596E0,1.740964688E-2,1.114828233E-2,-1.832594397E-3,2.075423826E-2
1.042447731E0,1.863137633E-2,1.237001177E-2,-1.832594397E-3,2.243888984E-2
1.044604919E0,1.618791744E-2,1.359174121E-2,-6.108647794E-4,2.114609316E-2
1.046762106E0,1.985310577E-2,1.603520103E-2,6.108647794E-4,2.552737034E-2
1.048919294E0,1.863137633E-2,1.359174121E-2,1.832594397E-3,2.313486579E-2
1.051076481E0,2.107483521E-2,1.847865991E-2,1.832594397E-3,2.808857336E-2
1.053233669E0,2.229656465E-2,2.092211880E-2,1.832594397E-3,3.063054444E-2
1.055390856E0,2.351829410E-2,2.336557768E-2,1.832594397E-3,3.320269236E-2
1.057548044E0,2.474002354E-2,1.847865991E-2,1.832594397E-3,3.093360695E-2
1.059705231E0,2.474002354E-2,1.725693047E-2,6.108647794E-4,3.017024312E-2
1.061862419E0,2.474002354E-2,2.596175298E-3,-6.108647794E-4,2.488336888E-2
1.064019606E0,2.962694131E-2,1.359174121E-2,-6.108647794E-4,3.260159868E-2
1.066176742E0,2.962694131E-2,6.261364091E-3,-1.832594397E-3,3.033675549E-2
1.068333929E0,2.840521187E-2,5.039634649E-3,-3.054323839E-3,2.901004779E-2
1.070491117E0,2.962694131E-2,7.483093534E-3,-3.054323839E-3,3.070962771E-2
1.072648304E0,3.084867075E-2,5.039634649E-3,-3.054323839E-3,3.140648498E-2
1.074805492E0,3.084867075E-2,6.261364091E-3,-3.054323839E-3,3.162552864E-2
1.076962679E0,3.084867075E-2,1.359174121E-2,-3.054323839E-3,3.384826156E-2
1.079119867E0,3.207040206E-2,1.603520103E-2,-4.276053514E-3,3.610987391E-2
1.081277054E0,3.451386094E-2,2.092211880E-2,-1.832594397E-3,4.040173331E-2
1.083434242E0,3.573558852E-2,1.603520103E-2,-1.832594397E-3,3.921120199E-2
1.085591429E0,3.451386094E-2,1.603520103E-2,-1.832594397E-3,3.810108491E-2
1.087748565E0,3.695731983E-2,2.092211880E-2,-1.832594397E-3,4.250808095E-2
1.089905804E0,3.817904741E-2,1.481347065E-2,-3.054323839E-3,4.106589178E-2
1.092062940E0,3.695731983E-2,1.481347065E-2,-1.832594397E-3,3.985775713E-2
1.094220127E0,3.817904741E-2,1.847865991E-2,-1.832594397E-3,4.245537581E-2
1.096377315E0,3.817904741E-2,1.847865991E-2,-1.832594397E-3,4.245537581E-2
1.098534502E0,3.817904741E-2,1.847865991E-2,-1.832594397E-3,4.245537581E-2
1.100691690E0,3.817904741E-2,1.603520103E-2,-1.832594397E-3,4.145028028E-2
1.102848877E0,4.062250629E-2,1.970038936E-2,-1.832594397E-3,4.518464076E-2
1.105006013E0,4.062250629E-2,2.092211880E-2,-1.832594397E-3,4.573053110E-2
1.107163252E0,4.062250629E-2,1.970038936E-2,-6.108647794E-4,4.515159481E-2
1.109320388E0,4.184423760E-2,2.580903657E-2,-1.832594397E-3,4.919761164E-2
1.111477575E0,4.184423760E-2,2.947422490E-2,-6.108647794E-4,5.118635862E-2
1.113634763E0,4.184423760E-2,2.947422490E-2,6.108647794E-4,5.118635862E-2
1.115791950E0,4.306596518E-2,2.703076601E-2,3.054323839E-3,5.093788925E-2
1.117949138E0,4.306596518E-2,3.191768378E-2,3.054323839E-3,5.369119843E-2
1.120106325E0,4.306596518E-2,3.191768378E-2,1.832594397E-3,5.363556932E-2
1.122263513E0,4.184423760E-2,2.336557768E-2,3.054323839E-3,4.802311250E-2
1.124420700E0,4.550942779E-2,3.558287397E-2,4.276053514E-3,5.792696756E-2
1.126577888E0,4.795288667E-2,3.191768378E-2,3.054323839E-3,5.768489206E-2
1.128735075E0,5.039634556E-2,3.802633286E-2,3.054323839E-3,6.320698165E-2
1.130892211E0,5.528326333E-2,4.291325063E-2,1.832594397E-3,7.000817585E-2
1.133049398E0,5.650499091E-2,4.046979174E-2,1.832594397E-3,6.952680377E-2
1.135206586E0,6.017018110E-2,4.046979174E-2,3.054323839E-3,7.257812088E-2
1.137363773E0,6.261363626E-2,4.413498193E-2,3.054323839E-3,7.666611357E-2
1.139520961E0,6.383536756E-2,4.169152305E-2,3.054323839E-3,7.630508593E-2
1.141678148E0,6.750056148E-2,4.657844082E-2,1.832594397E-3,8.203191666E-2
1.143835336E0,7.238747925E-2,6.001746282E-2,4.276053514E-3,9.412931333E-2
1.145992523E0,7.605266571E-2,6.001746282E-2,4.276053514E-3,9.697622615E-2
1.148149658E0,8.216131479E-2,6.246092543E-2,3.054323839E-3,1.032529794E-1
1.150306898E0,9.071341902E-2,7.223475724E-2,4.276053514E-3,1.160390847E-1
1.152464086E0,9.926552325E-2,7.834340632E-2,3.054323839E-3,1.264937244E-1
1.154621273E0,1.065959036E-1,8.078686893E-2,3.054323839E-3,1.337854019E-1
1.156778408E0,1.139262840E-1,8.078686893E-2,3.054323839E-3,1.396962608E-1
1.158935596E0,1.212566569E-1,8.323032409E-2,4.276053514E-3,1.471351363E-1
1.161092783E0,1.261435747E-1,7.956513762E-2,4.276053514E-3,1.492015322E-1
1.163249971E0,1.322522312E-1,8.811724186E-2,3.054323839E-3,1.589485133E-1
1.165407158E0,1.395826042E-1,9.544762224E-2,3.054323839E-3,1.691238625E-1
1.167564346E0,1.420260668E-1,9.544762224E-2,4.276053514E-3,1.711722433E-1
1.169721533E0,1.456912458E-1,9.544762224E-2,6.719512399E-3,1.743024370E-1
1.171878721E0,1.505781710E-1,9.544762224E-2,9.162971750E-3,1.785160896E-1
1.174035908E0,1.566868126E-1,1.003345400E-1,1.038470119E-2,1.863481129E-1
1.176193096E0,1.627954692E-1,1.015562713E-1,1.160643063E-2,1.922257794E-1
1.178350231E0,1.701258421E-1,1.076649204E-1,1.282816008E-2,2.017401768E-1
1.180507419E0,1.762344837E-1,1.101083755E-1,1.282816008E-2,2.081994460E-1
1.182664606E0,1.823431402E-1,1.113301069E-1,1.160643063E-2,2.139582266E-1
1.184821794E0,1.908952445E-1,1.259908676E-1,1.160643063E-2,2.290183449E-1
1.186978981E0,1.945604384E-1,1.320995092E-1,9.162971750E-3,2.353465627E-1
1.189136169E0,2.006690800E-1,1.394298822E-1,7.941242307E-3,2.444827909E-1
1.191293356E0,2.055560052E-1,1.455385387E-1,4.276053514E-3,2.518988332E-1
1.193450544E0,2.141081095E-1,1.601992846E-1,1.832594397E-3,2.674125123E-1
1.195607679E0,2.263254076E-1,1.809686869E-1,-6.108647794E-4,2.897813468E-1
1.197764867E0,2.385426909E-1,1.968511790E-1,-6.719512399E-3,3.093511821E-1
1.199922106E0,2.556469142E-1,2.212857604E-1,-9.162971750E-3,3.382405839E-1
1.202079242E0,2.727511227E-1,2.432768941E-1,-1.038470119E-2,3.656291347E-1
1.204236429E0,2.910770774E-1,2.628245652E-1,-1.893680729E-2,3.926336966E-1
1.206393617E0,3.081812859E-1,2.713766694E-1,-2.382372692E-2,4.113253841E-1
1.208550804E0,3.252854943E-1,2.958112657E-1,-3.237583488E-2,4.408663657E-1
1.210707992E0,3.448331654E-1,3.178023994E-1,-3.359756246E-2,4.701458000E-1
1.212865179E0,3.656025827E-1,3.446804583E-1,-3.359756246E-2,5.035858050E-1
1.215022367E0,3.851502538E-1,3.666715920E-1,-3.237583488E-2,5.327635208E-1
1.217179554E0,4.059196413E-1,3.776671588E-1,-2.993237413E-2,5.552469586E-1
1.219336690E0,4.254673123E-1,3.898844421E-1,-2.748891525E-2,5.777438468E-1
1.221493877E0,4.437932670E-1,4.143190384E-1,-2.504545636E-2,6.076512193E-1
1.223651065E0,4.633409381E-1,4.204276800E-1,-2.382372692E-2,6.261084802E-1
1.225808252E0,4.865537882E-1,4.387536347E-1,-2.382372692E-2,6.555966067E-1
1.227965440E0,5.061014891E-1,4.521926641E-1,-2.260199748E-2,6.790638947E-1
1.230122627E0,5.256491303E-1,4.570795596E-1,-1.893680729E-2,6.968409680E-1
1.232279815E0,5.415316224E-1,4.583013058E-1,-1.649334840E-2,7.096256869E-1
1.234437002E0,5.574141145E-1,4.583013058E-1,-1.404988952E-2,7.217672625E-1
1.236594190E0,5.684096813E-1,4.497492015E-1,-1.160643063E-2,7.249128357E-1
1.238751325E0,5.794052482E-1,4.424188137E-1,-9.162971750E-3,7.290602227E-1
1.240908513E0,5.806269646E-1,4.558578432E-1,-1.527161989E-2,7.383544322E-1
1.243065700E0,5.818486810E-1,4.607447684E-1,-1.771507785E-2,7.423930584E-1
1.245222888E0,5.928442478E-1,4.521926641E-1,-1.771507785E-2,7.458259393E-1
1.247380075E0,6.038398147E-1,4.289797843E-1,-1.527161989E-2,7.408639547E-1
1.249537263E0,6.136136651E-1,4.130973220E-1,-1.282816008E-2,7.398213900E-1
1.251694450E0,6.185005903E-1,4.021017551E-1,-9.162971750E-3,7.377755497E-1
1.253851638E0,6.246092319E-1,3.911061883E-1,-5.497782957E-3,7.369741982E-1
1.256008773E0,6.282744408E-1,3.801106215E-1,-4.276053514E-3,7.343235949E-1
1.258166013E0,6.294961572E-1,3.605629504E-1,-3.054323839E-3,7.254518468E-1
1.260323200E0,6.294961572E-1,3.483456373E-1,-1.832594397E-3,7.194535797E-1
1.262480336E0,6.282744408E-1,3.239110410E-1,5.497782957E-3,7.068786042E-1
1.264637523E0,6.331613660E-1,3.178023994E-1,7.941242307E-3,7.084876455E-1
1.266794711E0,6.356047988E-1,3.080285788E-1,1.160643063E-2,7.064062392E-1
1.268951898E0,6.417134404E-1,3.006981909E-1,1.649334840E-2,7.088635780E-1
1.271109086E0,6.514872909E-1,2.848156989E-1,3.237583488E-2,7.117611026E-1
1.273266273E0,6.649262905E-1,2.628245652E-1,4.459312931E-2,7.163743931E-1
1.275423461E0,6.783653498E-1,2.481638193E-1,5.070177838E-2,7.241101431E-1
1.277580648E0,6.918043494E-1,2.420551628E-1,5.558869615E-2,7.350333753E-1
1.279737783E0,7.101303339E-1,2.432768941E-1,5.803215504E-2,7.528854291E-1
1.281894971E0,7.247910500E-1,2.457203567E-1,6.169734150E-2,7.677936713E-1
1.284052158E0,7.357866168E-1,2.359465212E-1,6.658425927E-2,7.755553945E-1
1.286209346E0,7.516691089E-1,2.335030586E-1,7.147117704E-2,7.903405954E-1
1.288366533E0,7.638863921E-1,2.261726856E-1,7.513637096E-2,8.002012110E-1
1.290523721E0,7.761036754E-1,2.078467458E-1,8.124501258E-2,8.075505784E-1
1.292680908E0,7.883210182E-1,2.005163580E-1,8.857539296E-2,8.182312863E-1
1.294838096E0,8.029817343E-1,1.858556122E-1,9.468404204E-2,8.296306660E-1
1.296995283E0,8.139773011E-1,1.760817766E-1,9.957095981E-2,8.387360818E-1
1.299152471E0,8.286380768E-1,1.675296724E-1,1.044578776E-1,8.518325549E-1
1.301309606E0,8.445205688E-1,1.687513888E-1,1.105665267E-1,8.682839278E-1
1.303466794E0,8.591812849E-1,1.614210159E-1,1.117882580E-1,8.813318554E-1
1.305623981E0,8.762855530E-1,1.589775532E-1,1.154534444E-1,8.980421653E-1
1.307781169E0,8.946114779E-1,1.565341055E-1,1.178968996E-1,9.158232916E-1
1.309938356E0,9.141591191E-1,1.467602700E-1,1.227838174E-1,9.339707371E-1
1.312095544E0,9.373720288E-1,1.516471803E-1,1.276707351E-1,9.581038588E-1
1.314252731E0,9.569196701E-1,1.479819864E-1,1.325576603E-1,9.773256656E-1
1.316409919E0,9.776890874E-1,1.540906429E-1,1.374445707E-1,9.992551665E-1
1.318567106E0,9.947932959E-1,1.614210159E-1,1.423314959E-1,1.017805827E0
1.320724294E0,1.011897564E0,1.773035079E-1,1.484401375E-1,1.037982509E0
1.322881429E0,1.027779937E0,1.968511790E-1,1.533270627E-1,1.057634707E0
1.325038617E0,1.047327638E0,2.322813272E-1,1.569922417E-1,1.084203099E0
1.327195804E0,1.066875339E0,2.652680278E-1,1.594357044E-1,1.110859963E0
1.329352992E0,1.091309905E0,3.153589368E-1,1.569922417E-1,1.146758532E0
1.331510179E0,1.112079382E0,3.556760252E-1,1.508836001E-1,1.177281550E0
1.333667367E0,1.129183531E0,3.996582925E-1,1.459966749E-1,1.206688537E0
1.335824554E0,1.147509456E0,4.485274553E-1,1.435532272E-1,1.240387987E0
1.337981690E0,1.165835381E0,4.925097227E-1,1.398880333E-1,1.273305393E0
1.340138929E0,1.187826514E0,5.340485573E-1,1.398880333E-1,1.309850507E0
1.342296117E0,1.204930782E0,5.597048402E-1,1.386663020E-1,1.335797904E0
1.344453252E0,1.222035050E0,5.878046155E-1,1.374445707E-1,1.363002179E0
1.346610440E0,1.236695766E0,6.012436748E-1,1.374445707E-1,1.381955638E0
1.348767627E0,1.250134826E0,6.159043908E-1,1.386663020E-1,1.400501212E0
1.350924815E0,1.261130333E0,6.244565248E-1,1.386663020E-1,1.414080624E0
1.353082002E0,1.270904183E0,6.281217337E-1,1.398880333E-1,1.424536071E0
1.355239190E0,1.277012825E0,6.293434501E-1,1.411097646E-1,1.430645623E0
1.357396377E0,1.280678034E0,6.195695996E-1,1.411097646E-1,1.429655441E0
1.359553513E0,1.285564899E0,6.097957492E-1,1.435532272E-1,1.430082339E0
1.361710752E0,1.284343243E0,5.926915407E-1,1.459966749E-1,1.422018234E0
1.363867940E0,1.280678034E0,5.707004070E-1,1.508836001E-1,1.410177663E0
1.366025075E0,1.272125959E0,5.462658405E-1,1.557705253E-1,1.393188889E0
1.368182263E0,1.261130333E0,5.218312144E-1,1.618791670E-1,1.374395284E0
1.370339450E0,1.252578259E0,4.973966479E-1,1.692095399E-1,1.358303202E0
1.372496638E0,1.241582632E0,4.741837978E-1,1.777616441E-1,1.340886613E0
1.374653773E0,1.231808782E0,4.546361268E-1,1.863137633E-1,1.326182378E0
1.376810961E0,1.225700140E0,4.314232469E-1,1.960875988E-1,1.314122216E0
1.378968200E0,1.217148066E0,3.996582925E-1,2.083048970E-1,1.297908739E0
1.381125336E0,1.211039424E0,3.752236962E-1,2.205221802E-1,1.286871921E0
1.383282523E0,1.204930782E0,3.544542789E-1,2.339612097E-1,1.277589086E0
1.385439711E0,1.198822141E0,3.165806830E-1,2.486219704E-1,1.264599042E0
1.387596898E0,1.193935156E0,2.762635946E-1,2.608392537E-1,1.252932499E0
1.389754086E0,1.190270066E0,2.567159235E-1,2.718348205E-1,1.247613749E0
1.391911273E0,1.191491723E0,2.286161482E-1,2.803869247E-1,1.245204681E0
1.394068461E0,1.191491723E0,2.017380893E-1,2.901607752E-1,1.242796869E0
1.396225648E0,1.190270066E0,1.724165827E-1,2.999345958E-1,1.239528568E0
1.398382783E0,1.190270066E0,1.394298822E-1,3.048215210E-1,1.236567702E0
1.400540023E0,1.190270066E0,1.064431891E-1,3.084867001E-1,1.234194890E0
1.402697211E0,1.191491723E0,6.979130208E-2,3.109301627E-1,1.233369741E0
1.404854346E0,1.193935156E0,3.558287397E-2,3.133736253E-1,1.234888791E0
1.407011533E0,1.198822141E0,5.039634649E-3,3.121519089E-1,1.238805367E0
1.409168721E0,1.203709006E0,-2.183841541E-2,3.121519089E-1,1.243716649E0
1.411325908E0,1.207374215E0,-5.726857483E-2,3.097084463E-1,1.247778629E0
1.413483096E0,1.213482857E0,-7.681624591E-2,3.060432673E-1,1.253835659E0
1.415640283E0,1.218369842E0,-9.514218569E-2,3.035998046E-1,1.259225932E0
1.417797419E0,1.224478483E0,-1.122464016E-1,3.023780584E-1,1.266246145E0
1.419954606E0,1.234252334E0,-1.171333194E-1,3.023780584E-1,1.276139306E0
1.422111794E0,1.240360975E0,-1.269071549E-1,3.023780584E-1,1.282978279E0
1.424268981E0,1.242804408E0,-1.317940801E-1,3.011563420E-1,1.285545650E0
1.426426169E0,1.246469617E0,-1.354592592E-1,2.987128794E-1,1.288900734E0
1.428583356E0,1.242804408E0,-1.440113783E-1,2.987128794E-1,1.286285916E0
1.430740544E0,1.241582632E0,-1.476765573E-1,2.987128794E-1,1.285521366E0
1.432897731E0,1.234252334E0,-1.550069451E-1,2.987128794E-1,1.279310502E0
1.435054919E0,1.234252334E0,-1.598938555E-1,2.987128794E-1,1.279911814E0
1.437212054E0,1.229365349E0,-1.647807807E-1,3.011563420E-1,1.276396102E0
1.439369242E0,1.224478483E0,-1.696676910E-1,3.023780584E-1,1.272622164E0
1.441526429E0,1.220813274E0,-1.831067204E-1,3.048215210E-1,1.271546020E0
1.443683617E0,1.214704633E0,-1.892153621E-1,3.060432673E-1,1.266875005E0
1.445840804E0,1.212261200E0,-1.928805560E-1,3.072649837E-1,1.265382115E0
1.447997992E0,1.206152558E0,-1.928805560E-1,3.072649837E-1,1.259531132E0
1.450155179E0,1.202487350E0,-1.965457499E-1,3.084867001E-1,1.256889057E0
1.452312367E0,1.196378708E0,-2.087630332E-1,3.072649837E-1,1.252723348E0
1.454469502E0,1.186604857E0,-2.148716897E-1,3.072649837E-1,1.244432682E0
1.456626742E0,1.181717873E0,-2.209803313E-1,3.060432673E-1,1.240545009E0
1.458783877E0,1.174387574E0,-2.222020626E-1,3.060432673E-1,1.233783779E0
1.460941065E0,1.170722365E0,-2.283107042E-1,3.060432673E-1,1.231413463E0
1.463098304E0,1.164613724E0,-2.270889878E-1,3.060432673E-1,1.225380355E0
1.465255440E0,1.157283306E0,-2.283107042E-1,3.048215210E-1,1.218337633E0
1.467412627E0,1.148731232E0,-2.283107042E-1,3.060432673E-1,1.210525383E0
1.469569815E0,1.137735605E0,-2.331976295E-1,3.035998046E-1,1.200415046E0
1.471727002E0,1.127961874E0,-2.295324355E-1,3.048215210E-1,1.190755763E0
1.473884190E0,1.114522815E0,-2.234237939E-1,3.048215210E-1,1.176858299E0
1.476041325E0,1.105970740E0,-2.148716897E-1,3.048215210E-1,1.167157779E0
1.478198565E0,1.099861979E0,-2.099847645E-1,3.072649837E-1,1.161120900E0
1.480355700E0,1.090088248E0,-1.916588247E-1,3.072649837E-1,1.148667604E0
1.482512888E0,1.080314398E0,-1.843284518E-1,3.060432673E-1,1.137857046E0
1.484670075E0,1.071762204E0,-1.696676910E-1,3.072649837E-1,1.127773522E0
1.486827263E0,1.064431906E0,-1.440113783E-1,3.072649837E-1,1.117213645E0
1.488984450E0,1.052214622E0,-1.122464016E-1,3.060432673E-1,1.101552245E0
1.491141638E0,1.047327638E0,-7.681624591E-2,3.048215210E-1,1.093486203E0
1.493298825E0,1.037553787E0,-4.016435891E-2,3.023780584E-1,1.081463604E0
1.495456013E0,1.031445146E0,-3.512472380E-3,2.999345958E-1,1.074175120E0
1.497613200E0,1.027779937E0,3.436114267E-2,2.974911332E-1,1.070520089E0
1.499770336E0,1.025336504E0,7.101303339E-2,2.938259542E-1,1.068967487E0
1.501927523E0,1.019227862E0,1.052214578E-1,2.901607752E-1,1.064936743E0
1.504084711E0,1.015562654E0,1.382081509E-1,2.889390290E-1,1.064873119E0
1.506241898E0,1.009454012E0,1.675296724E-1,2.840521336E-1,1.061955370E0
1.508399086E0,1.004567146E0,1.956294477E-1,2.828303874E-1,1.061799915E0
1.510556273E0,9.984585047E-1,2.212857604E-1,2.816086709E-1,1.060749837E0
1.512713461E0,9.960150123E-1,2.481638193E-1,2.803869247E-1,1.064071432E0
1.514870648E0,9.935715795E-1,2.518289983E-1,2.779434621E-1,1.062005130E0
1.517027783E0,9.911280870E-1,2.628245652E-1,2.755000293E-1,1.061749454E0
1.519184971E0,9.886846542E-1,2.591593862E-1,2.730565667E-1,1.057932333E0
1.521342158E0,9.862411618E-1,2.432768941E-1,2.693913579E-1,1.050917209E0
1.523499346E0,9.825760126E-1,2.249509543E-1,2.681696415E-1,1.043059686E0
1.525656533E0,9.776890874E-1,1.944077164E-1,2.657261789E-1,1.031639818E0
1.527813721E0,9.740238786E-1,1.577558219E-1,2.645044625E-1,1.021553731E0
1.529970908E0,9.715804458E-1,1.235474050E-1,2.645044625E-1,1.014492550E0
1.532128096E0,9.679152369E-1,7.467821985E-2,2.645044625E-1,1.006180577E0
1.534285231E0,9.679152369E-1,3.069595434E-2,2.657261789E-1,1.004197465E0
1.536442419E0,9.679152369E-1,-1.084284950E-2,2.681696415E-1,1.004436374E0
1.538599658E0,9.728021622E-1,-5.360338464E-2,2.718348205E-1,1.011489762E0
1.540756794E0,9.715804458E-1,-9.514218569E-2,2.779434621E-1,1.015023727E0
1.542913981E0,9.728021622E-1,-1.305723488E-1,2.852738500E-1,1.022142042E0
1.545071169E0,9.728021622E-1,-1.647807807E-1,2.901607752E-1,1.028440581E0
1.547228356E0,9.728021622E-1,-1.928805560E-1,2.962694168E-1,1.035047111E0
1.549385544E0,9.703587294E-1,-2.197586000E-1,2.999345958E-1,1.039158635E0
1.551542679E0,9.691369534E-1,-2.417497337E-1,3.035998046E-1,1.043955080E0
1.553699919E0,9.630283117E-1,-2.576322258E-1,3.060432673E-1,1.042813682E0
1.555857054E0,9.569196701E-1,-2.649625838E-1,3.097084463E-1,1.040105642E0
1.558014242E0,9.495893121E-1,-2.747364342E-1,3.121519089E-1,1.036647859E0
1.560171429E0,9.495893121E-1,-2.722929716E-1,3.170388341E-1,1.037485878E0
1.562328617E0,9.471458197E-1,-2.796233594E-1,3.219257295E-1,1.038706216E0
1.564485804E0,9.434806705E-1,-2.857320011E-1,3.243691921E-1,1.037792814E0
1.566642992E0,9.410371780E-1,-2.747364342E-1,3.280344009E-1,1.033749315E0
1.568800179E0,9.361502528E-1,-2.649625838E-1,3.292561173E-1,1.027128063E0
1.570957367E0,9.337068200E-1,-2.564104795E-1,3.292561173E-1,1.022723986E0
1.573114502E0,9.300416112E-1,-2.393062711E-1,3.304778337E-1,1.015608433E0
1.575271690E0,9.275981784E-1,-2.295324355E-1,3.316995800E-1,1.011507850E0
1.577428877E0,9.227112532E-1,-2.124282271E-1,3.341430426E-1,1.004078374E0
1.579586065E0,9.190460443E-1,-1.965457499E-1,3.365865052E-1,9.982816932E-1
1.581743252E0,9.166026115E-1,-1.794415265E-1,3.390299380E-1,9.936301665E-1
1.583900440E0,9.104939699E-1,-1.721111536E-1,3.402516842E-1,9.871133304E-1
1.586057627E0,9.031635523E-1,-1.598938555E-1,3.414734006E-1,9.787106470E-1
1.588214763E0,8.970549107E-1,-1.513417512E-1,3.402516842E-1,9.712790778E-1
1.590371950E0,8.897245526E-1,-1.379027218E-1,3.402516842E-1,9.624957916E-1
1.592529138E0,8.811724186E-1,-1.391244531E-1,3.390299380E-1,9.543383800E-1
1.594686325E0,8.689551353E-1,-1.293506175E-1,3.378082216E-1,9.412380167E-1
1.596843513E0,8.542944193E-1,-1.281288862E-1,3.329212964E-1,9.257821320E-1
1.599000700E0,8.396336436E-1,-1.366809905E-1,3.280344009E-1,9.117416942E-1
1.601157888E0,8.249728680E-1,-1.403461844E-1,3.231474757E-1,8.970516013E-1
1.603315075E0,8.090903759E-1,-1.525634825E-1,3.182605505E-1,8.827188854E-1
1.605472263E0,7.956513762E-1,-1.745546162E-1,3.121519089E-1,8.723355093E-1
1.607629398E0,7.846558094E-1,-1.867718995E-1,3.060432673E-1,8.626882189E-1
1.609786586E0,7.773254514E-1,-2.075413018E-1,2.999345958E-1,8.586437044E-1
1.611943773E0,7.675516009E-1,-2.283107042E-1,2.938259542E-1,8.529917521E-1
1.614100961E0,7.614429593E-1,-2.539670467E-1,2.889390290E-1,8.531004651E-1
1.616258148E0,7.589994669E-1,-2.771798968E-1,2.852738500E-1,8.569072619E-1
1.618415336E0,7.577777505E-1,-2.991710305E-1,2.864955962E-1,8.636030056E-1
1.620572523E0,7.602212429E-1,-3.211621642E-1,2.852738500E-1,8.731910692E-1
1.622729711E0,7.675516009E-1,-3.284925222E-1,2.877173126E-1,8.830764685E-1
1.624886846E0,7.736602426E-1,-3.419315517E-1,2.926042378E-1,8.950332938E-1
1.627044033E0,7.822123766E-1,-3.517054021E-1,2.962694168E-1,9.073744868E-1
1.629201221E0,7.956513762E-1,-3.627009690E-1,3.035998046E-1,9.256273261E-1
1.631358408E0,8.164207935E-1,-3.590357602E-1,3.072649837E-1,9.433246310E-1
1.633515596E0,8.445205688E-1,-3.468184769E-1,3.121519089E-1,9.648506938E-1
1.635672783E0,8.762855530E-1,-3.358229101E-1,3.182605505E-1,9.909304594E-1
1.637829971E0,9.104939699E-1,-3.370446563E-1,3.194822669E-1,1.022089668E0
1.639987158E0,9.520327449E-1,-3.358229101E-1,3.243691921E-1,1.060357839E0
1.642144294E0,9.923498631E-1,-3.309359848E-1,3.280344009E-1,1.096304449E0
1.644301533E0,1.033888698E0,-3.272708058E-1,3.292561173E-1,1.133332083E0
1.646458669E0,1.074205756E0,-3.321577311E-1,3.304778337E-1,1.171948106E0
1.648615856E0,1.110857606E0,-3.394880891E-1,3.316995800E-1,1.208007200E0
1.650773044E0,1.148731232E0,-3.529271185E-1,3.329212964E-1,1.246987403E0
1.652930231E0,1.184161425E0,-3.639226854E-1,3.329212964E-1,1.282776126E0
1.655087419E0,1.213482857E0,-3.749182522E-1,3.304778337E-1,1.312371875E0
1.657244606E0,1.244026065E0,-3.883572817E-1,3.268126547E-1,1.343588010E0
1.659401794E0,1.270904183E0,-3.969093859E-1,3.219257295E-1,1.369806804E0
1.661558981E0,1.295338750E0,-4.042397738E-1,3.158170879E-1,1.393216675E0
1.663716117E0,1.313664675E0,-4.176788032E-1,3.097084463E-1,1.412830415E0
1.665873304E0,1.325881958E0,-4.274526238E-1,3.011563420E-1,1.425262732E0
1.668030492E0,1.336877584E0,-4.335612655E-1,2.901607752E-1,1.435064571E0
1.670187679E0,1.344208002E0,-4.347830117E-1,2.767217457E-1,1.439620208E0
1.672344867E0,1.347873092E0,-4.335612655E-1,2.620609999E-1,1.439935141E0
1.674502054E0,1.347873092E0,-4.225656986E-1,2.449567765E-1,1.433641330E0
1.676659242E0,1.346651435E0,-4.189005196E-1,2.290742993E-1,1.428783667E0
1.678816429E0,1.341764450E0,-4.115701318E-1,2.095266134E-1,1.419021922E0
1.680973565E0,1.333212376E0,-4.017963111E-1,1.899789423E-1,1.405342489E0
1.683130752E0,1.317329884E0,-4.017963111E-1,1.704312712E-1,1.387748218E0
1.685287940E0,1.299003959E0,-3.883572817E-1,1.496618688E-1,1.364049610E0
1.687445127E0,1.278234601E0,-3.810268939E-1,1.288924664E-1,1.340029275E0
1.689602315E0,1.255021691E0,-3.761399984E-1,1.117882580E-1,1.314936257E0
1.691759502E0,1.230587125E0,-3.785834610E-1,9.712749720E-2,1.291163762E0
1.693916690E0,1.206152558E0,-3.785834610E-1,8.491020650E-2,1.267019800E0
1.696073877E0,1.186604857E0,-3.798051775E-1,7.880155742E-2,1.248396069E0
1.698231013E0,1.164613724E0,-3.834703565E-1,7.147117704E-2,1.228203065E0
1.700388200E0,1.143844247E0,-3.908007443E-1,7.024945319E-2,1.210801333E0
1.702545388E0,1.130405307E0,-3.920224607E-1,6.780599058E-2,1.198371987E0
1.704702575E0,1.110857606E0,-3.895790279E-1,6.658425927E-2,1.179071628E0
1.706859763E0,1.093753338E0,-3.920224607E-1,6.414080411E-2,1.163654595E0
1.709016950E0,1.072983980E0,-3.822486401E-1,6.047561392E-2,1.140642777E0
1.711174138E0,1.052214622E0,-3.688096106E-1,5.681042373E-2,1.116424456E0
1.713331273E0,1.031445146E0,-3.517054021E-1,5.314523727E-2,1.091054625E0
1.715488461E0,1.004567146E0,-3.407098353E-1,4.948004708E-2,1.061925901E0
1.717645648E0,9.776890874E-1,-3.223838806E-1,4.459312931E-2,1.030434794E0
1.719802836E0,9.532544613E-1,-3.077231348E-1,4.214967042E-2,1.002578770E0
1.721960023E0,9.324851036E-1,-2.893971801E-1,3.726275265E-2,9.770709846E-1
1.724117211E0,9.092722535E-1,-2.784016132E-1,3.237583488E-2,9.514891928E-1
1.726274398E0,8.921679854E-1,-2.686277926E-1,2.993237413E-2,9.322127183E-1
1.728431586E0,8.762855530E-1,-2.686277926E-1,2.871064469E-2,9.169850394E-1
1.730588721E0,8.604030609E-1,-2.796233594E-1,2.626718581E-2,9.050815518E-1
1.732745961E0,8.506292105E-1,-2.784016132E-1,2.260199748E-2,8.953146722E-1
1.734903096E0,8.371901512E-1,-2.906189263E-1,1.893680729E-2,8.864001987E-1
1.737060283E0,8.261946440E-1,-2.991710305E-1,1.160643063E-2,8.787693693E-1
1.739217471E0,8.127555847E-1,-3.113883138E-1,6.719512399E-3,8.703904149E-1
1.741374658E0,7.980948091E-1,-3.150535226E-1,3.054323839E-3,8.580346003E-1
1.743531846E0,7.895427346E-1,-3.309359848E-1,-3.054323839E-3,8.560991092E-1
1.745689033E0,7.773254514E-1,-3.517054021E-1,-7.941242307E-3,8.532260021E-1
1.747846169E0,7.675516009E-1,-3.614792228E-1,-1.160643063E-2,8.484912479E-1
1.750003356E0,7.553343177E-1,-3.712530732E-1,-2.015853859E-2,8.418819053E-1
1.752160544E0,7.431169748E-1,-3.663661480E-1,-2.382372692E-2,8.288634162E-1
1.754317731E0,7.247910500E-1,-3.614792228E-1,-2.871064469E-2,8.104403715E-1
1.756474919E0,7.064651251E-1,-3.578140438E-1,-2.993237413E-2,7.924770091E-1
1.758632106E0,6.893609166E-1,-3.480401933E-1,-3.481929377E-2,7.730218837E-1
1.760789294E0,6.698132157E-1,-3.468184769E-1,-3.848448023E-2,7.552574760E-1
1.762946481E0,6.527090073E-1,-3.419315517E-1,-4.214967042E-2,7.380534052E-1
1.765103617E0,6.307178736E-1,-3.370446563E-1,-4.337139800E-2,7.164392609E-1
1.767260804E0,6.087267399E-1,-3.260490894E-1,-4.459312931E-2,6.919861268E-1
1.769417992E0,5.855138898E-1,-3.138317764E-1,-4.459312931E-2,6.658118700E-1
1.771575179E0,5.635227561E-1,-3.003927469E-1,-4.581485689E-2,6.402286312E-1
1.773732367E0,5.415316224E-1,-2.710712552E-1,-4.459312931E-2,6.072270339E-1
1.775889554E0,5.183187723E-1,-2.319758981E-1,-3.970621154E-2,5.692484082E-1
1.778046742E0,4.914407134E-1,-1.794415265E-1,-3.115410358E-2,5.241028662E-1
1.780203877E0,4.645626545E-1,-1.281288862E-1,-2.138026804E-2,4.823822004E-1
1.782361117E0,4.401280880E-1,-7.070759684E-2,-1.160643063E-2,4.459226472E-1
1.784518252E0,4.156934917E-1,-2.672533318E-2,-1.832594397E-3,4.165557356E-1
1.786675440E0,3.937023580E-1,1.114828233E-2,1.832594397E-3,3.938644301E-1
1.788832627E0,3.741546869E-1,3.802633286E-2,5.497782957E-3,3.761222638E-1
1.790989815E0,3.558287323E-1,5.757400393E-2,7.941242307E-3,3.605439168E-1
1.793147002E0,3.387245238E-1,7.589995116E-2,5.497782957E-3,3.471675838E-1
1.795304138E0,3.216203153E-1,6.979130208E-2,1.832594397E-3,3.291106371E-1
1.797461377E0,3.118464649E-1,6.856957078E-2,6.108647794E-4,3.192966909E-1
1.799618513E0,2.996291816E-1,6.123919412E-2,-1.832594397E-3,3.058287818E-1
1.801775700E0,2.861901522E-1,5.513054505E-2,-5.497782957E-3,2.915036978E-1
1.803932888E0,2.764163017E-1,5.390881747E-2,-6.719512399E-3,2.817042497E-1
1.806090075E0,2.654207349E-1,4.780016840E-2,-7.941242307E-3,2.698074979E-1
1.808247263E0,2.532034516E-1,4.780016840E-2,-7.941242307E-3,2.577981911E-1
1.810404450E0,2.397644222E-1,4.535670951E-2,-7.941242307E-3,2.441460067E-1
1.812561586E0,2.287688553E-1,4.902189970E-2,-6.719512399E-3,2.340587270E-1
1.814718825E0,2.189950198E-1,5.390881747E-2,-4.276053514E-3,2.255731897E-1
1.816875961E0,2.043342739E-1,5.879573524E-2,-3.054323839E-3,2.126470383E-1
1.819033148E0,1.884517819E-1,6.368265301E-2,-3.054323839E-3,1.989444226E-1
1.821190336E0,1.725693047E-1,8.078686893E-2,-3.054323839E-3,1.905676048E-1
1.823347523E0,1.517999023E-1,9.422589093E-2,-1.832594397E-3,1.786759281E-1
1.825504711E0,1.298087686E-1,1.162170246E-1,-1.832594397E-3,1.742414177E-1
1.827661898E0,1.041524485E-1,1.235474050E-1,6.108647794E-4,1.615922862E-1
1.829819033E0,7.483093441E-2,1.345429718E-1,6.108647794E-4,1.539540619E-1
1.831976221E0,4.673115537E-2,1.455385387E-1,-6.108647794E-4,1.528582359E-1
1.834133408E0,1.496618707E-2,1.492037177E-1,1.832594397E-3,1.499636440E-1
1.836290596E0,-1.924224012E-2,1.504254490E-1,3.054323839E-3,1.516819317E-1
1.838447783E0,-5.100720748E-2,1.418733448E-1,6.719512399E-3,1.509136608E-1
1.840604971E0,-8.643736690E-2,1.333212405E-1,1.038470119E-2,1.592288089E-1
1.842762158E0,-1.230892539E-1,1.211039424E-1,1.282816008E-2,1.731522191E-1
1.844919346E0,-1.634063274E-1,1.149952933E-1,1.282816008E-2,2.002251408E-1
1.847076533E0,-2.037234008E-1,9.789107740E-2,7.941242307E-3,2.261613371E-1
1.849233669E0,-2.440404743E-1,9.544762224E-2,6.108647794E-4,2.620426966E-1
1.851390856E0,-2.868010104E-1,8.811724186E-2,-1.038470119E-2,3.002121082E-1
1.853548044E0,-3.283398151E-1,8.323032409E-2,-2.015853859E-2,3.393238685E-1
1.855705231E0,-3.686569035E-1,8.200860023E-2,-2.993237413E-2,3.788525703E-1
1.857862419E0,-4.028653204E-1,8.323032409E-2,-3.726275265E-2,4.130572188E-1
1.860019606E0,-4.382954836E-1,8.200860023E-2,-4.092793912E-2,4.477761021E-1
1.862176742E0,-4.712821841E-1,8.811724186E-2,-3.848448023E-2,4.809912687E-1
1.864333929E0,-5.030471683E-1,9.422589093E-2,-3.848448023E-2,5.132407108E-1
1.866491117E0,-5.335903764E-1,9.789107740E-2,-3.481929377E-2,5.436117512E-1
1.868648304E0,-5.592467189E-1,1.088866442E-1,-2.748891525E-2,5.704111099E-1
1.870805492E0,-5.849030018E-1,1.101083755E-1,-2.260199748E-2,5.956057640E-1
1.872962679E0,-6.117810607E-1,1.064431891E-1,-2.138026804E-2,6.213399509E-1
1.875119867E0,-6.337721944E-1,1.101083755E-1,-1.649334840E-2,6.434773339E-1
1.877277054E0,-6.569850445E-1,1.211039424E-1,-1.160643063E-2,6.681543405E-1
1.879434242E0,-6.789761782E-1,1.186604798E-1,-9.162971750E-3,6.893278756E-1
1.881591377E0,-7.034108043E-1,1.235474050E-1,-5.497782957E-3,7.141995145E-1
1.883748565E0,-7.278453708E-1,1.223256737E-1,-5.497782957E-3,7.380736276E-1
1.885905752E0,-7.535017133E-1,1.308777779E-1,6.108647794E-4,7.647837589E-1
1.888062940E0,-7.791580558E-1,1.406516135E-1,6.719512399E-3,7.917798331E-1
1.890220127E0,-8.097012639E-1,1.675296724E-1,1.282816008E-2,8.269503550E-1
1.892377315E0,-8.426879644E-1,1.931859851E-1,1.893680729E-2,8.647557071E-1
1.894534450E0,-8.805615902E-1,2.286161482E-1,2.382372692E-2,9.100668257E-1
1.896691638E0,-9.208786488E-1,2.701549530E-1,2.993237413E-2,9.601547435E-1
1.898848825E0,-9.685261250E-1,3.043633699E-1,3.237583488E-2,1.015740179E0
1.901006013E0,-1.017395258E0,3.263545036E-1,3.115410358E-2,1.068911105E0
1.903163200E0,-1.065042734E0,3.507890999E-1,2.993237413E-2,1.121724104E0
1.905320388E0,-1.118798852E0,3.568977416E-1,2.748891525E-2,1.174666978E0
1.907477575E0,-1.176220179E0,3.520108163E-1,2.382372692E-2,1.227995559E0
1.909634763E0,-1.234863162E0,3.568977416E-1,1.771507785E-2,1.285525904E0
1.911791950E0,-1.294727921E0,3.507890999E-1,1.282816008E-2,1.341468578E0
1.913949086E0,-1.354592681E0,3.434587121E-1,7.941242307E-3,1.397479260E0
1.916106325E0,-1.418122530E0,3.397935331E-1,1.832594397E-3,1.458264213E0
1.918263461E0,-1.482874274E0,3.226893246E-1,-5.497782957E-3,1.517588462E0
1.920420648E0,-1.547625899E0,3.080285788E-1,-1.527161989E-2,1.578056004E0
1.922577836E0,-1.617264509E0,2.897026241E-1,-2.993237413E-2,1.643279663E0
1.924735023E0,-1.684459686E0,2.823722363E-1,-4.703658819E-2,1.708610826E0
1.926892211E0,-1.751654744E0,2.579376400E-1,-6.169734150E-2,1.771618675E0
1.929049346E0,-1.813962936E0,2.310595959E-1,-8.002328873E-2,1.830369853E0
1.931206533E0,-1.871384263E0,2.212857604E-1,-1.007926911E-1,1.887115687E0
1.933363721E0,-1.931249022E0,1.968511790E-1,-1.227838174E-1,1.945134710E0
1.935520908E0,-1.988670230E0,1.675296724E-1,-1.398880333E-1,2.000610941E0
1.937678096E0,-2.037539482E0,1.565341055E-1,-1.557705253E-1,2.049471767E0
1.939835283E0,-2.076634884E0,1.492037177E-1,-1.704312712E-1,2.088952132E0
1.941992471E0,-2.112065077E0,1.394298822E-1,-1.777616441E-1,2.124113646E0
1.944149658E0,-2.143830061E0,1.394298822E-1,-1.814268380E-1,2.156006429E0
1.946306846E0,-2.174373150E0,1.516471803E-1,-1.814268380E-1,2.187192529E0
1.948464033E0,-2.208581686E0,1.675296724E-1,-1.740964651E-1,2.221758050E0
1.950621169E0,-2.234237909E0,1.907425225E-1,-1.667660922E-1,2.248557910E0
1.952778356E0,-2.251342058E0,2.188423127E-1,-1.557705253E-1,2.267310627E0
1.954935544E0,-2.263559341E0,2.554942071E-1,-1.411097646E-1,2.282299312E0
1.957092731E0,-2.280663729E0,2.823722363E-1,-1.252272725E-1,2.301487126E0
1.959249919E0,-2.303876400E0,2.884808779E-1,-1.093447953E-1,2.324440571E0
1.961407054E0,-2.325867653E0,2.945895493E-1,-9.101885557E-2,2.346215628E0
1.963564242E0,-2.346637011E0,2.982547283E-1,-7.635809481E-2,2.366747072E0
1.965721481E0,-2.360076189E0,3.055851161E-1,-6.047561392E-2,2.380545984E0
1.967878617E0,-2.363741159E0,3.275762498E-1,-4.825831577E-2,2.386819502E0
1.970035804E0,-2.362519503E0,3.422369957E-1,-3.970621154E-2,2.387509402E0
1.972192992E0,-2.353967428E0,3.422369957E-1,-3.604102135E-2,2.378988812E0
1.974350127E0,-2.352745771E0,3.385718167E-1,-3.604102135E-2,2.377255244E0
1.976507315E0,-2.353967428E0,3.214675784E-1,-4.214967042E-2,2.376190365E0
1.978664502E0,-2.346637011E0,2.921460867E-1,-4.948004708E-2,2.365270147E0
1.980821690E0,-2.342971802E0,2.518289983E-1,-5.803215504E-2,2.357181037E0
1.982978877E0,-2.338084936E0,1.980729103E-1,-6.780599058E-2,2.347439392E0
1.985136065E0,-2.335641384E0,1.565341055E-1,-7.880155742E-2,2.342206927E0
1.987293252E0,-2.333198071E0,1.149952933E-1,-9.101885557E-2,2.337802726E0
1.989450440E0,-2.331976414E0,7.589995116E-2,-1.056796089E-1,2.335603343E0
1.991607575E0,-2.334419727E0,3.680460155E-2,-1.215620935E-1,2.337872406E0
1.993764763E0,-2.346637011E0,1.237001177E-2,-1.423314959E-1,2.350982036E0
1.995921950E0,-2.367406368E0,-5.955931731E-3,-1.655443609E-1,2.373194750E0
1.998079138E0,-2.391840935E0,-2.794706449E-2,-1.936441362E-1,2.399829608E0
2.000236325E0,-2.430936337E0,-4.382954910E-2,-2.241873741E-1,2.441645445E0
2.002393513E0,-2.470031738E0,-5.360338464E-2,-2.559523284E-1,2.483836087E0
2.004550700E0,-2.512792349E0,-5.726857483E-2,-2.852738500E-1,2.529582228E0
2.006707836E0,-2.562883139E0,-5.238165334E-2,-3.145953715E-1,2.582650590E0
2.008865023E0,-2.611752272E0,-4.016435891E-2,-3.414734006E-1,2.634286846E0
2.011022211E0,-2.663064957E0,-2.061668597E-2,-3.671297431E-1,2.688331129E0
2.013179398E0,-2.713155985E0,9.926552884E-3,-3.903425932E-1,2.741109497E0
2.015336586E0,-2.760803461E0,4.902189970E-2,-4.086685479E-1,2.791316693E0
2.017493773E0,-2.809672594E0,1.027780026E-1,-4.257727563E-1,2.843607892E0
2.019650961E0,-2.859763384E0,1.687513888E-1,-4.392117858E-1,2.898211627E0
2.021808096E0,-2.904967546E0,2.359465212E-1,-4.477638900E-1,2.948728490E0
2.023965283E0,-2.944062710E0,3.129154742E-1,-4.514290690E-1,2.994863860E0
2.026122471E0,-2.973384380E0,3.764454126E-1,-4.550942481E-1,3.031474327E0
2.028279658E0,-2.996597290E0,4.240928590E-1,-4.575377107E-1,3.060848057E0
2.030436846E0,-3.012479544E0,4.583013058E-1,-4.587594569E-1,3.081482326E0
2.032594033E0,-3.027140379E0,5.059487820E-1,-4.587594569E-1,3.103227881E0
2.034751221E0,-3.040579557E0,5.499309897E-1,-4.538725317E-1,3.123067148E0
2.036908356E0,-3.058905363E0,6.073523164E-1,-4.465421438E-1,3.150425169E0
2.039065596E0,-3.072344303E0,6.378955245E-1,-4.343248606E-1,3.167782868E0
2.041222783E0,-3.078453064E0,6.586649418E-1,-4.196641147E-1,3.175977132E0
2.043379919E0,-3.080896616E0,6.672170758E-1,-4.074468017E-1,3.178539835E0
2.045537106E0,-3.083339930E0,6.574432254E-1,-3.940077722E-1,3.177177811E0
2.047694294E0,-3.079674721E0,6.440041661E-1,-3.817904890E-1,3.169369295E0
2.049851481E0,-3.071122646E0,6.097957492E-1,-3.720166385E-1,3.153100307E0
2.052008669E0,-3.058905363E0,5.780308247E-1,-3.634645343E-1,3.134186995E0
2.054165856E0,-3.041801214E0,5.303833485E-1,-3.585776389E-1,3.108446404E0
2.056322992E0,-3.024697065E0,4.876227975E-1,-3.561341763E-1,3.084379983E0
2.058480179E0,-3.003927469E0,4.436405599E-1,-3.549124300E-1,3.057181712E0
2.060637367E0,-2.984379768E0,4.008800089E-1,-3.573558927E-1,3.032314400E0
2.062794554E0,-2.964832306E0,3.630063832E-1,-3.634645343E-1,3.009004936E0
2.064951742E0,-2.942841053E0,3.190241456E-1,-3.732383847E-1,2.983520866E0
2.067108929E0,-2.915962934E0,2.738201320E-1,-3.891208768E-1,2.954527434E0
2.069266065E0,-2.892750263E0,2.273944169E-1,-4.050033391E-1,2.929802043E0
2.071423252E0,-2.870759010E0,1.785252392E-1,-4.208858311E-1,2.906935403E0
2.073580440E0,-2.851211309E0,1.345429718E-1,-4.343248606E-1,2.887238443E0
2.075737627E0,-2.834107161E0,8.689551800E-2,-4.465421438E-1,2.870385708E0
2.077894815E0,-2.818224669E0,3.558287397E-2,-4.575377107E-1,2.855345370E0
2.080052002E0,-2.798676968E0,-1.069013379E-3,-4.660898149E-1,2.837222872E0
2.082209190E0,-2.780351162E0,-3.405570984E-2,-4.709767401E-1,2.820165149E0
2.084366377E0,-2.762025118E0,-6.337722391E-2,-4.734202027E-1,2.803020891E0
2.086523513E0,-2.740033865E0,-9.025526792E-2,-4.746419191E-1,2.782304179E0
2.088680700E0,-2.718042850E0,-1.110246703E-1,-4.746419191E-1,2.761406954E0
2.090837888E0,-2.693608284E0,-1.293506175E-1,-4.709767401E-1,2.737531052E0
2.092995075E0,-2.675282240E0,-1.464548260E-1,-4.648680985E-1,2.719317272E0
2.095152263E0,-2.655734539E0,-1.574503928E-1,-4.575377107E-1,2.699455005E0
2.097309450E0,-2.639852047E0,-1.782197952E-1,-4.477638900E-1,2.683481624E0
2.099466638E0,-2.625191450E0,-1.831067204E-1,-4.343248606E-1,2.667170093E0
2.101623773E0,-2.617861032E0,-1.953240186E-1,-4.196641147E-1,2.658470580E0
2.103781013E0,-2.614195824E0,-2.063195854E-1,-4.025598764E-1,2.653043918E0
2.105938148E0,-2.616639376E0,-2.075413018E-1,-3.866774142E-1,2.653185715E0
2.108095336E0,-2.623969555E0,-2.002109289E-1,-3.671297431E-1,2.657082025E0
2.110252523E0,-2.637408733E0,-2.002109289E-1,-3.463603258E-1,2.667578437E0
2.112409658E0,-2.652069330E0,-1.941022873E-1,-3.243691921E-1,2.678873420E0
2.114566898E0,-2.665508509E0,-1.855501831E-1,-2.987128794E-1,2.688604446E0
2.116724033E0,-2.676504135E0,-1.733328849E-1,-2.742782831E-1,2.696098524E0
2.118881221E0,-2.686277866E0,-1.769980639E-1,-2.498437017E-1,2.703671386E0
2.121038408E0,-2.685056210E0,-1.855501831E-1,-2.205221802E-1,2.700478800E0
2.123195596E0,-2.686277866E0,-1.855501831E-1,-1.887572110E-1,2.699286374E0
2.125352783E0,-2.698495150E0,-1.794415265E-1,-1.569922417E-1,2.709007549E0
2.127509971E0,-2.715599298E0,-1.525634825E-1,-1.313359290E-1,2.723050549E0
2.129667158E0,-2.727816582E0,-1.171333194E-1,-1.056796089E-1,2.732374736E0
2.131824294E0,-2.731481791E0,-9.025526792E-2,-8.002328873E-2,2.734143835E0
2.133981481E0,-2.727816582E0,-6.459894776E-2,-5.681042373E-2,2.729172723E0
2.136138669E0,-2.718042850E0,-3.649916872E-2,-3.481929377E-2,2.718510899E0
2.138295856E0,-2.707047224E0,5.039634649E-3,-1.282816008E-2,2.707082310E0
2.140453044E0,-2.697273493E0,4.046979174E-2,9.162971750E-3,2.697592641E0
2.142610231E0,-2.691164732E0,7.589995116E-2,2.626718581E-2,2.692362974E0
2.144767419E0,-2.677725792E0,1.174387559E-1,4.092793912E-2,2.680612313E0
2.146924606E0,-2.660621643E0,1.504254490E-1,5.558869615E-2,2.665450327E0
2.149081742E0,-2.638630390E0,1.748600453E-1,6.658425927E-2,2.645256100E0
2.151238929E0,-2.612974167E0,1.968511790E-1,7.513637096E-2,2.621455675E0
2.153396117E0,-2.592204809E0,2.102901936E-1,8.491020650E-2,2.602106355E0
2.155553304E0,-2.579987288E0,2.151771188E-1,9.468404204E-2,2.590675716E0
2.157710492E0,-2.582430840E0,2.017380893E-1,1.069013327E-1,2.592503653E0
2.159867679E0,-2.590982914E0,1.931859851E-1,1.191186309E-1,2.600904176E0
2.162024815E0,-2.599534988E0,1.846338809E-1,1.301141977E-1,2.609329709E0
2.164182054E0,-2.610530615E0,1.736383140E-1,1.411097646E-1,2.620101586E0
2.166339190E0,-2.621526241E0,1.760817766E-1,1.545487940E-1,2.631974536E0
2.168496377E0,-2.632521868E0,1.834121495E-1,1.679878086E-1,2.644244940E0
2.170653565E0,-2.643517256E0,1.992946416E-1,1.826485693E-1,2.657303584E0
2.172810700E0,-2.654512882E0,2.225074917E-1,1.936441362E-1,2.670851227E0
2.174967888E0,-2.658178091E0,2.579376400E-1,2.021962404E-1,2.678306538E0
2.177125127E0,-2.663064957E0,2.860374451E-1,2.095266134E-1,2.686565425E0
2.179282263E0,-2.664286852E0,3.263545036E-1,2.205221802E-1,2.693243718E0
2.181439450E0,-2.659399748E0,3.703367710E-1,2.327394783E-1,2.695129683E0
2.183596638E0,-2.653291225E0,4.069886506E-1,2.461785078E-1,2.695588609E0
2.185753773E0,-2.647182465E0,4.497492015E-1,2.620609999E-1,2.697874221E0
2.187910961E0,-2.641073942E0,5.010618567E-1,2.755000293E-1,2.702264757E0
2.190068200E0,-2.634965181E0,5.511527658E-1,2.901607752E-1,2.707582714E0
2.192225336E0,-2.626413107E0,6.012436748E-1,3.023780584E-1,2.711267647E0
2.194382523E0,-2.614195824E0,6.464476585E-1,3.145953715E-1,2.711251487E0
2.196539711E0,-2.601978540E0,6.843212843E-1,3.255909383E-1,2.710091770E0
2.198696898E0,-2.586096048E0,7.246383429E-1,3.341430426E-1,2.706408150E0
2.200854086E0,-2.570213556E0,7.588467598E-1,3.451386094E-1,2.702030124E0
2.203011273E0,-2.549444199E0,7.893900275E-1,3.549124300E-1,2.692353092E0
2.205168408E0,-2.531118155E0,8.235984445E-1,3.659079969E-1,2.686775423E0
2.207325596E0,-2.510348797E0,8.443678617E-1,3.756818473E-1,2.675059816E0
2.209482783E0,-2.490801096E0,8.663589954E-1,3.878991306E-1,2.665545675E0
2.211639971E0,-2.468810081E0,8.846849203E-1,3.988946974E-1,2.652698175E0
2.213797158E0,-2.448040485E0,9.030108452E-1,4.086685479E-1,2.641087046E0
2.215954346E0,-2.427271128E0,9.164499044E-1,4.208858311E-1,2.628434979E0
2.218111481E0,-2.401614904E0,9.286671877E-1,4.318813980E-1,2.610880778E0
2.220268669E0,-2.377180338E0,9.323323965E-1,4.428769648E-1,2.591596045E0
2.222425856E0,-2.355189085E0,9.262236953E-1,4.526508152E-1,2.570933434E0
2.224583044E0,-2.334419727E0,9.213368297E-1,4.636463821E-1,2.552125582E0
2.226740231E0,-2.314872026E0,9.078977704E-1,4.709767401E-1,2.530756794E0
2.228897419E0,-2.298989534E0,8.907935619E-1,4.783071280E-1,2.511502291E0
2.231054606E0,-2.283107042E0,8.700241446E-1,4.844157696E-1,2.490818825E0
2.233211794E0,-2.270889759E0,8.358157277E-1,4.917461574E-1,2.469279756E0
2.235368981E0,-2.259894133E0,8.064942360E-1,4.941896200E-1,2.449852613E0
2.237526117E0,-2.248898745E0,7.747292519E-1,4.978547990E-1,2.430146164E0
2.239683304E0,-2.240346670E0,7.454077601E-1,4.978547990E-1,2.413015817E0
2.241840492E0,-2.235459566E0,7.050906420E-1,4.978547990E-1,2.396307928E0
2.243997627E0,-2.231794357E0,6.843212843E-1,4.929678738E-1,2.385837169E0
2.246154815E0,-2.228129387E0,6.623301506E-1,4.856374860E-1,2.374675885E0
2.248312002E0,-2.225685835E0,6.427824497E-1,4.758636653E-1,2.365014364E0
2.250469242E0,-2.217133760E0,6.268999577E-1,4.636463821E-1,2.350245442E0
2.252626377E0,-2.206138134E0,6.097957492E-1,4.514290690E-1,2.332956178E0
2.254783565E0,-2.195142508E0,5.902481079E-1,4.367683232E-1,2.314694370E0
2.256940752E0,-2.179260015E0,5.633700490E-1,4.221075773E-1,2.290138606E0
2.259097940E0,-2.158490658E0,5.438223481E-1,4.098902643E-1,2.263367998E0
2.261255127E0,-2.138942957E0,5.169443488E-1,3.988946974E-1,2.236386687E0
2.263412315E0,-2.114508390E0,4.998401105E-1,3.903425932E-1,2.207567260E0
2.265569450E0,-2.094960690E0,4.668534100E-1,3.842339516E-1,2.180469703E0
2.267726638E0,-2.069304466E0,4.473057389E-1,3.769035637E-1,2.150385941E0
2.269883825E0,-2.050978422E0,4.424188137E-1,3.707949221E-1,2.130665570E0
2.272041013E0,-2.033874273E0,4.314232469E-1,3.671297431E-1,2.111292217E0
2.274198148E0,-2.016770124E0,4.302015305E-1,3.659079969E-1,2.094355212E0
2.276355336E0,-2.000887632E0,4.375318885E-1,3.634645343E-1,2.080166325E0
2.278512523E0,-1.991113782E0,4.448622763E-1,3.634645343E-1,2.072327919E0
2.280669711E0,-1.977674723E0,4.619664848E-1,3.622428179E-1,2.062966360E0
2.282826898E0,-1.966679215E0,4.668534100E-1,3.622428179E-1,2.053533321E0
2.284984086E0,-1.950796723E0,4.644099474E-1,3.646862805E-1,2.038205225E0
2.287141273E0,-1.933692455E0,4.888445437E-1,3.646862805E-1,2.027592558E0
2.289298461E0,-1.917809963E0,4.900662601E-1,3.610210717E-1,2.012087525E0
2.291455596E0,-1.901927471E0,5.022835732E-1,3.573558927E-1,1.999329920E0
2.293612783E0,-1.882379770E0,5.083922148E-1,3.524689674E-1,1.981426410E0
2.295769971E0,-1.864053845E0,5.230529904E-1,3.475820720E-1,1.967001389E0
2.297927158E0,-1.843284488E0,5.523744822E-1,3.475820720E-1,1.955410077E0
2.300084346E0,-1.817628145E0,5.865828991E-1,3.475820720E-1,1.941304940E0
2.302241481E0,-1.793193579E0,6.061306000E-1,3.439168632E-1,1.923854549E0
2.304398669E0,-1.769980669E0,6.305651665E-1,3.414734006E-1,1.909724609E0
2.306555908E0,-1.749211311E0,6.537780166E-1,3.402516842E-1,1.898140436E0
2.308713096E0,-1.728441834E0,6.794343591E-1,3.378082216E-1,1.887659031E0
2.310870231E0,-1.707672477E0,6.965385675E-1,3.378082216E-1,1.874946842E0
2.313027419E0,-1.683237910E0,7.099775672E-1,3.365865052E-1,1.857592120E0
2.315184606E0,-1.661246777E0,7.221949100E-1,3.378082216E-1,1.842666746E0
2.317341794E0,-1.635590434E0,7.356339097E-1,3.414734006E-1,1.825627947E0
2.319498981E0,-1.612377644E0,7.405208349E-1,3.439168632E-1,1.807321660E0
2.321656169E0,-1.589164734E0,7.502946854E-1,3.488037884E-1,1.791661449E0
2.323813304E0,-1.562286615E0,7.722858191E-1,3.512472510E-1,1.777790619E0
2.325970492E0,-1.536630392E0,7.832813859E-1,3.549124300E-1,1.760887709E0
2.328127679E0,-1.515860915E0,8.016073108E-1,3.561341763E-1,1.751353804E0
2.330284867E0,-1.491426349E0,8.284853697E-1,3.573558927E-1,1.743113248E0
2.332442054E0,-1.466991782E0,8.407026529E-1,3.597993553E-1,1.728670418E0
2.334599190E0,-1.437670231E0,8.553634286E-1,3.622428179E-1,1.711654798E0
2.336756377E0,-1.404683590E0,8.626937866E-1,3.646862805E-1,1.688304665E0
2.338913565E0,-1.370475173E0,8.614720702E-1,3.695732057E-1,1.660397748E0
2.341070752E0,-1.333823204E0,8.651372194E-1,3.769035637E-1,1.633891993E0
2.343227940E0,-1.294727921E0,8.663589954E-1,3.830122054E-1,1.604243326E0
2.345385075E0,-1.255632520E0,8.675807118E-1,3.903425932E-1,1.575333824E0
2.347542315E0,-1.216537237E0,8.736893535E-1,3.952295184E-1,1.549032701E0
2.349699450E0,-1.181107044E0,8.663589954E-1,4.001164436E-1,1.518448197E0
2.351856638E0,-1.142011762E0,8.651372194E-1,4.074468017E-1,1.489518771E0
2.354013825E0,-1.099251151E0,8.688024282E-1,4.147771895E-1,1.461236076E0
2.356171013E0,-1.060155869E0,8.688024282E-1,4.233292937E-1,1.434557707E0
2.358328200E0,-1.017395258E0,8.602503538E-1,4.306596816E-1,1.400211250E0
2.360485388E0,-9.782999158E-1,8.504765034E-1,4.404335022E-1,1.369073657E0
2.362642523E0,-9.355394244E-1,8.382592201E-1,4.526508152E-1,1.335217321E0
2.364799711E0,-8.927788734E-1,8.284853697E-1,4.660898149E-1,1.304101929E0
2.366956898E0,-8.500183225E-1,8.052725196E-1,4.783071280E-1,1.264821208E0
2.369114086E0,-8.011491299E-1,7.991638184E-1,4.868592322E-1,1.231882563E0
2.371271273E0,-7.571669221E-1,7.881683111E-1,4.941896200E-1,1.199472557E0
2.373428408E0,-7.070759535E-1,7.796161771E-1,4.990765154E-1,1.164832673E0
2.375585648E0,-6.569850445E-1,7.783944607E-1,4.978547990E-1,1.133748952E0
2.377742783E0,-6.068941355E-1,7.710640430E-1,4.929678738E-1,1.098124572E0
2.379899971E0,-5.555815101E-1,7.686206102E-1,4.856374860E-1,1.065500927E0
2.382057158E0,-5.042688847E-1,7.661771774E-1,4.721984863E-1,1.031642373E0
2.384214294E0,-4.590648711E-1,7.490729094E-1,4.550942481E-1,9.894248602E-1
2.386371533E0,-4.101957083E-1,7.429642677E-1,4.379900396E-1,9.550349193E-1
2.388528721E0,-3.662134409E-1,7.331904769E-1,4.221075773E-1,9.218760039E-1
2.390685856E0,-3.222311735E-1,7.356339097E-1,4.050033391E-1,8.994542139E-1
2.392843044E0,-2.806923687E-1,7.405208349E-1,3.878991306E-1,8.818305100E-1
2.395000231E0,-2.428187430E-1,7.429642677E-1,3.707949221E-1,8.651275740E-1
2.397157419E0,-2.098320574E-1,7.625119686E-1,3.536907136E-1,8.663435320E-1
2.399314606E0,-1.841757298E-1,7.783944607E-1,3.365865052E-1,8.678185935E-1
2.401471742E0,-1.621845961E-1,8.016073108E-1,3.219257295E-1,8.789279261E-1
2.403628981E0,-1.438586563E-1,8.199332356E-1,3.084867001E-1,8.877780511E-1
2.405786117E0,-1.328630894E-1,8.309288025E-1,2.974911332E-1,8.925224085E-1
2.407943304E0,-1.230892539E-1,8.455895782E-1,2.864955962E-1,9.012504789E-1
2.410100492E0,-1.145371497E-1,8.602503538E-1,2.791652083E-1,9.116373421E-1
2.412257679E0,-1.096502244E-1,8.749110699E-1,2.742782831E-1,9.234290057E-1
2.414414867E0,-1.010981202E-1,9.042325616E-1,2.742782831E-1,9.503083352E-1
2.416572002E0,-9.132428467E-2,9.188933372E-1,2.779434621E-1,9.643431227E-1
2.418729190E0,-8.277218044E-2,9.421061873E-1,2.840521336E-1,9.874719827E-1
2.420886377E0,-7.299833745E-2,9.677625299E-1,2.913824916E-1,1.013309838E0
2.423043565E0,-6.566796452E-2,1.001971006E0,3.011563420E-1,1.048309745E0
2.425200752E0,-6.078104675E-2,1.048396707E0,3.109301627E-1,1.095220323E0
2.427357940E0,-5.955931544E-2,1.080161691E0,3.231474757E-1,1.129035376E0
2.429515127E0,-6.078104675E-2,1.108261466E0,3.341430426E-1,1.159133032E0
2.431672263E0,-6.444623321E-2,1.133917689E0,3.451386094E-1,1.187031298E0
2.433829450E0,-7.055488229E-2,1.141248107E0,3.561341763E-1,1.197604603E0
2.435986638E0,-7.666353136E-2,1.142469883E0,3.646862805E-1,1.201711618E0
2.438143825E0,-8.521563560E-2,1.142469883E0,3.732383847E-1,1.204909138E0
2.440301013E0,-9.376774728E-2,1.132696033E0,3.793470263E-1,1.198205683E0
2.442458200E0,-9.621120244E-2,1.119256973E0,3.854556680E-1,1.187673709E0
2.444615336E0,-1.010981202E-1,1.098487616E0,3.866774142E-1,1.168937678E0
2.446772523E0,-1.059850380E-1,1.076496482E0,3.854556680E-1,1.148326424E0
2.448929711E0,-1.096502244E-1,1.056948781E0,3.793470263E-1,1.128303179E0
2.451086898E0,-1.108719558E-1,1.031292439E0,3.695732057E-1,1.101109004E0
2.453244086E0,-1.145371497E-1,1.012966514E0,3.585776389E-1,1.080646954E0
2.455401273E0,-1.145371497E-1,9.970840216E-1,3.463603258E-1,1.061725379E0
2.457558408E0,-1.133154184E-1,9.848667383E-1,3.329212964E-1,1.045772186E0
2.459715596E0,-1.120936871E-1,9.750928879E-1,3.182605505E-1,1.031824071E0
2.461872783E0,-1.108719558E-1,9.702059627E-1,3.048215210E-1,1.022989912E0
2.464029971E0,-1.072067693E-1,9.665408134E-1,2.913824916E-1,1.015183822E0
2.466187158E0,-1.023198515E-1,9.604321718E-1,2.779434621E-1,1.005063121E0
2.468344294E0,-9.621120244E-2,9.518800378E-1,2.645044625E-1,9.926201753E-1
2.470501533E0,-8.765909821E-2,9.396627545E-1,2.547306120E-1,9.775161863E-1
2.472658669E0,-7.910698652E-2,9.298889041E-1,2.449567765E-1,9.648601513E-1
2.474815856E0,-6.688969582E-2,9.213368297E-1,2.364046723E-1,9.535318318E-1
2.476973044E0,-5.222893879E-2,9.127846956E-1,2.266308367E-1,9.419476094E-1
2.479130231E0,-3.512472659E-2,9.005674124E-1,2.180787325E-1,9.272614217E-1
2.481287419E0,-1.679878123E-2,8.859066367E-1,2.095266134E-1,9.105021525E-1
2.483444606E0,5.192350596E-3,8.822414875E-1,2.009745091E-1,9.048578651E-1
2.485601742E0,2.840521187E-2,8.724676371E-1,1.924224049E-1,8.938864669E-1
2.487758929E0,4.917461425E-2,8.504765034E-1,1.838703007E-1,8.715140348E-1
2.489916117E0,7.238747925E-2,8.382592201E-1,1.777616441E-1,8.599521320E-1
2.492073304E0,9.437860548E-2,8.174898028E-1,1.692095399E-1,8.401361600E-1
2.494230440E0,1.151480079E-1,7.893900275E-1,1.594357044E-1,8.135203889E-1
2.496387679E0,1.346956789E-1,7.576250434E-1,1.496618688E-1,7.839242995E-1
2.498544815E0,1.566868126E-1,7.173079848E-1,1.398880333E-1,7.474290362E-1
2.500702002E0,1.786779463E-1,6.635518670E-1,1.276707351E-1,6.989468544E-1
2.502859190E0,1.982256174E-1,6.061306000E-1,1.154534444E-1,6.480873378E-1
2.505016377E0,2.189950198E-1,5.548179150E-1,1.032361463E-1,6.053424150E-1
2.507173565E0,2.373209596E-1,4.998401105E-1,9.101885557E-2,5.607546754E-1
2.509330700E0,2.568686306E-1,4.448622763E-1,7.757982612E-2,5.195214796E-1
2.511487888E0,2.776380479E-1,3.935496211E-1,6.291907281E-2,4.857190542E-1
2.513645075E0,2.959639728E-1,3.507890999E-1,4.459312931E-2,4.611249430E-1
2.515802263E0,3.130682111E-1,3.031416535E-1,2.871064469E-2,4.367274528E-1
2.517959450E0,3.301724195E-1,2.664897740E-1,1.160643063E-2,4.244588737E-1
2.520116638E0,3.436114490E-1,2.225074917E-1,-4.276053514E-3,4.093857550E-1
2.522273773E0,3.619373739E-1,1.931859851E-1,-2.382372692E-2,4.109587052E-1
2.524430961E0,3.753764033E-1,1.626427472E-1,-3.970621154E-2,4.110190879E-1
2.526588148E0,3.900371492E-1,1.382081509E-1,-5.803215504E-2,4.178494965E-1
2.528745336E0,4.022544622E-1,1.149952933E-1,-7.513637096E-2,4.250624003E-1
2.530902523E0,4.144717455E-1,1.003345400E-1,-9.224057943E-2,4.363051366E-1
2.533059711E0,4.230238497E-1,8.078686893E-2,-1.105665267E-1,4.446354152E-1
2.535216898E0,4.266890585E-1,5.513054505E-2,-1.264490038E-1,4.484331391E-1
2.537374033E0,4.279107749E-1,4.046979174E-2,-1.411097646E-1,4.523907614E-1
2.539531221E0,4.266890585E-1,1.603520103E-2,-1.557705253E-1,4.545163769E-1
2.541688408E0,4.205803871E-1,-1.328630932E-2,-1.692095399E-1,4.535374918E-1
2.543845596E0,4.095848203E-1,-6.459894776E-2,-1.802051067E-1,4.521135140E-1
2.546002731E0,3.949240744E-1,-1.207985133E-1,-1.899789423E-1,4.545869596E-1
2.548159919E0,3.729329407E-1,-1.928805560E-1,-1.960875988E-1,4.633920948E-1
2.550317106E0,3.484983444E-1,-2.784016132E-1,-2.009745091E-1,4.892333877E-1
2.552474294E0,3.228420317E-1,-3.614792228E-1,-2.009745091E-1,5.246760517E-1
2.554631481E0,2.971857190E-1,-4.347830117E-1,-2.009745091E-1,5.636899610E-1
2.556788669E0,2.739728391E-1,-5.019781590E-1,-1.985310465E-1,6.053575514E-1
2.558945804E0,2.507599890E-1,-5.606211424E-1,-1.960875988E-1,6.446913865E-1
2.561103044E0,2.312123179E-1,-5.972730517E-1,-1.936441362E-1,6.690981137E-1
2.563260231E0,2.165515572E-1,-6.180424690E-1,-1.899789423E-1,6.818820051E-1
2.565417367E0,2.067777216E-1,-6.204859018E-1,-1.863137633E-1,6.800533795E-1
2.567574554E0,1.982256174E-1,-6.253728271E-1,-1.826485693E-1,6.809883025E-1
2.569731742E0,2.006690800E-1,-6.070469022E-1,-1.789833754E-1,6.639345373E-1
2.571888929E0,2.006690800E-1,-5.936078429E-1,-1.740964651E-1,6.503444703E-1
2.574046117E0,2.079994529E-1,-5.655080676E-1,-1.704312712E-1,6.261868452E-1
2.576203252E0,2.141081095E-1,-5.349648595E-1,-1.692095399E-1,6.005510401E-1
2.578360440E0,2.214384824E-1,-5.117519498E-1,-1.631008983E-1,5.809707072E-1
2.580517627E0,2.263254076E-1,-4.897608459E-1,-1.582139730E-1,5.622459760E-1
2.582674815E0,2.299905866E-1,-4.616610706E-1,-1.533270627E-1,5.380853113E-1
2.584832002E0,2.336557806E-1,-4.518872201E-1,-1.472184062E-1,5.295945078E-1
2.586989138E0,2.373209596E-1,-4.286743701E-1,-1.411097646E-1,5.098969691E-1
2.589146377E0,2.397644222E-1,-4.140135944E-1,-1.350011230E-1,4.971111925E-1
2.591303513E0,2.422078848E-1,-3.895790279E-1,-1.252272725E-1,4.755190303E-1
2.593460700E0,2.422078848E-1,-3.773617148E-1,-1.166751757E-1,4.633353212E-1
2.595617888E0,2.458730787E-1,-3.614792228E-1,-1.069013327E-1,4.500541015E-1
2.597775075E0,2.495382577E-1,-3.480401933E-1,-9.590577334E-2,4.388612943E-1
2.599932263E0,2.544251680E-1,-3.358229101E-1,-8.368847519E-2,4.295497107E-1
2.602089398E0,2.629773021E-1,-3.199404180E-1,-7.147117704E-2,4.202702245E-1
2.604246586E0,2.678641975E-1,-3.003927469E-1,-6.047561392E-2,4.069942636E-1
2.606403773E0,2.751945853E-1,-2.906189263E-1,-4.948004708E-2,4.032861207E-1
2.608560961E0,2.825249732E-1,-2.771798968E-1,-3.970621154E-2,3.977758652E-1
2.610718148E0,2.922987938E-1,-2.600756884E-1,-3.115410358E-2,3.924901613E-1
2.612875336E0,3.008508980E-1,-2.417497337E-1,-2.504545636E-2,3.867576392E-1
2.615032471E0,3.069595397E-1,-2.258672565E-1,-2.626718581E-2,3.820080387E-1
2.617189658E0,3.057378232E-1,-1.806632578E-1,-3.115410358E-2,3.564904030E-1
2.619346846E0,3.130682111E-1,-1.537852138E-1,-3.115410358E-2,3.501887705E-1
2.621504033E0,3.289506733E-1,-1.195767820E-1,-2.748891525E-2,3.510880128E-1
2.623661221E0,3.399462402E-1,-1.073594838E-1,-2.138026804E-2,3.571366977E-1
2.625818356E0,3.558287323E-1,-9.392046183E-2,-1.282816008E-2,3.682386475E-1
2.627975544E0,3.692677617E-1,-5.482511222E-2,3.054323839E-3,3.733280081E-1
2.630132731E0,3.888154328E-1,-2.916879393E-2,9.162971750E-3,3.900156655E-1
2.632289919E0,4.083631039E-1,1.374445739E-3,5.497782957E-3,4.084024233E-1
2.634447106E0,4.266890585E-1,3.802633286E-2,5.497782957E-3,4.284154296E-1
2.636604294E0,4.401280880E-1,6.246092543E-2,5.497782957E-3,4.445720714E-1
2.638761481E0,4.547888339E-1,7.712167501E-2,1.160643063E-2,4.614275083E-1
2.640918617E0,4.718930423E-1,7.467821985E-2,2.138026804E-2,4.782436573E-1
2.643075804E0,4.865537882E-1,5.757400393E-2,3.481929377E-2,4.911840164E-1
2.645232992E0,5.012145638E-1,4.657844082E-2,5.070177838E-2,5.059211999E-1
2.647390179E0,5.183187723E-1,1.114828233E-2,6.658425927E-2,5.226969462E-1
2.649547367E0,5.366446972E-1,-1.328630932E-2,8.124501258E-2,5.429224706E-1
2.651704554E0,5.574141145E-1,-4.260781780E-2,9.712749720E-2,5.674149028E-1
2.653861690E0,5.794052482E-1,-7.925970852E-2,1.117882580E-1,5.953899207E-1
2.656018877E0,6.026180983E-1,-1.073594838E-1,1.264490038E-1,6.250311846E-1
2.658176065E0,6.307178736E-1,-1.379027218E-1,1.411097646E-1,6.608586554E-1
2.660333252E0,6.612611413E-1,-1.635590494E-1,1.533270627E-1,6.982313712E-1
2.662490440E0,6.930260658E-1,-1.904370934E-1,1.631008983E-1,7.369893605E-1
2.664647627E0,7.260127664E-1,-2.234237939E-1,1.728747338E-1,7.790368426E-1
2.666804763E0,7.614429593E-1,-2.490801066E-1,1.802051067E-1,8.211639059E-1
2.668961950E0,7.956513762E-1,-2.918406427E-1,1.863137633E-1,8.677239720E-1
2.671119138E0,8.335250020E-1,-3.223838806E-1,1.899789423E-1,9.136669491E-1
2.673276093E0,8.689551353E-1,-3.529271185E-1,1.887572110E-1,9.566973727E-1
2.675433229E0,9.068287611E-1,-3.834703565E-1,1.863137633E-1,1.002048270E0
2.677590416E0,9.385937452E-1,-4.237874448E-1,1.753181964E-1,1.044648499E0
2.679747604E0,9.740238786E-1,-4.543306828E-1,1.618791670E-1,1.086896384E0
2.681904791E0,1.007010579E0,-4.824304581E-1,1.459966749E-1,1.126110333E0
2.684061979E0,1.041218996E0,-5.117519498E-1,1.264490038E-1,1.167054586E0
2.686219166E0,1.081536055E0,-5.398517251E-1,1.093447953E-1,1.213720069E0
2.688376354E0,1.118188024E0,-5.862774849E-1,8.857539296E-2,1.265666364E0
2.690533489E0,1.156061649E0,-6.143772602E-1,6.902772188E-2,1.310993052E0
2.692690676E0,1.195156932E0,-6.498073936E-1,4.703658819E-2,1.361198803E0
2.694847864E0,1.230587125E0,-6.791289449E-1,2.015853859E-2,1.405690991E0
2.697005051E0,1.264795542E0,-7.023417950E-1,-1.038470119E-2,1.446754852E0
2.699162187E0,1.289230108E0,-7.438805699E-1,-4.337139800E-2,1.489078122E0
2.701319374E0,1.311221242E0,-7.756455541E-1,-7.513637096E-2,1.525310672E0
2.703476562E0,1.330768943E0,-8.220712543E-1,-1.105665267E-1,1.568110992E0
2.705633749E0,1.349094868E0,-8.782708645E-1,-1.447749585E-1,1.616284771E0
2.707790937E0,1.366199136E0,-9.295834899E-1,-1.789833754E-1,1.662125324E0
2.709948124E0,1.377194643E0,-9.589049816E-1,-2.119700760E-1,1.691477213E0
2.712105312E0,1.384525061E0,-9.906699657E-1,-2.461785078E-1,1.720157110E0
2.714262499E0,1.391855359E0,-1.018769741E0,-2.755000293E-1,1.746726479E0
2.716419635E0,1.396742344E0,-1.057865024E0,-3.060432673E-1,1.778659626E0
2.718576822E0,1.400407553E0,-1.100625634E0,-3.304778337E-1,1.811555602E0
2.720734010E0,1.402850986E0,-1.153159976E0,-3.500255048E-1,1.849401706E0
2.722891197E0,1.406516194E0,-1.219133377E0,-3.659079969E-1,1.896961428E0
2.725048385E0,1.411403060E0,-1.282663345E0,-3.769035637E-1,1.944052507E0
2.727205520E0,1.416290045E0,-1.351080179E0,-3.854556680E-1,1.994961457E0
2.729362760E0,1.422398686E0,-1.407279730E0,-3.915643096E-1,2.038866565E0
2.731519895E0,1.429728985E0,-1.448818564E0,-3.952295184E-1,2.073501043E0
2.733677083E0,1.438281178E0,-1.489135623E0,-3.988946974E-1,2.108386737E0
2.735834270E0,1.448054910E0,-1.516013622E0,-3.976729810E-1,2.133847259E0
2.737991458E0,1.455385327E0,-1.544113398E0,-3.988946974E-1,2.159062207E0
2.740148593E0,1.465159178E0,-1.577100158E0,-3.964512348E-1,2.188860412E0
2.742305781E0,1.471267819E0,-1.628412843E0,-3.927860558E-1,2.229492828E0
2.744462968E0,1.479819894E0,-1.687055826E0,-3.866774142E-1,2.277178891E0
2.746620156E0,1.488372087E0,-1.748142242E0,-3.769035637E-1,2.326651901E0
2.748777343E0,1.495702386E0,-1.814115644E0,-3.622428179E-1,2.378941162E0
2.750934531E0,1.505476236E0,-1.870315194E0,-3.451386094E-1,2.425625339E0
2.753091718E0,1.514028311E0,-1.921627879E0,-3.231474757E-1,2.467662806E0
2.755248854E0,1.529910803E0,-1.961944938E0,-3.011563420E-1,2.506102581E0
2.757406041E0,1.545793295E0,-1.992488146E0,-2.730565667E-1,2.536542097E0
2.759563229E0,1.564119220E0,-2.025474787E0,-2.425133139E-1,2.570569928E0
2.761720416E0,1.586110353E0,-2.052352905E0,-2.070831656E-1,2.602072624E0
2.763877551E0,1.609323263E0,-2.069457054E0,-1.606574357E-1,2.626477618E0
2.766034739E0,1.631314397E0,-2.091448307E0,-8.246674389E-2,2.653703722E0
2.768191926E0,1.648418665E0,-2.113439322E0,6.108647794E-4,2.680281745E0
2.770349114E0,1.666744590E0,-2.158643484E0,8.491020650E-2,2.728550707E0
2.772506301E0,1.691179156E0,-2.201403856E0,1.655443609E-1,2.780947826E0
2.774663489E0,1.708283305E0,-2.266155720E0,2.412915826E-1,2.848142417E0
2.776820676E0,1.733939648E0,-2.310137987E0,3.109301627E-1,2.905161233E0
2.778977812E0,1.760817766E0,-2.337015867E0,3.756818473E-1,2.950128679E0
2.781134999E0,1.788917542E0,-2.389550209E0,4.306596816E-1,3.015898528E0
2.783292187E0,1.817017317E0,-2.449414968E0,4.758636653E-1,3.086686224E0
2.785449374E0,1.841451883E0,-2.517831802E0,5.149590373E-1,3.161582647E0
2.787606562E0,1.869551659E0,-2.575253248E0,5.455022454E-1,3.228734334E0
2.789763749E0,1.896429658E0,-2.618013620E0,5.699368119E-1,3.282570446E0
2.791920937E0,1.919642568E0,-2.636339664E0,5.858193040E-1,3.313381757E0
2.794078072E0,1.940411925E0,-2.618013620E0,5.931497216E-1,3.312253062E0
2.796235260E0,1.959959626E0,-2.570366383E0,5.980366468E-1,3.287228758E0
2.798392447E0,1.969733477E0,-2.497062445E0,5.931497216E-1,3.235273932E0
2.800549635E0,1.969733477E0,-2.411541462E0,5.858193040E-1,3.168369683E0
2.802706770E0,1.961181402E0,-2.312581301E0,5.674933791E-1,3.084852266E0
2.804863958E0,1.930638194E0,-2.179412842E0,5.381718874E-1,2.960883846E0
2.807021145E0,1.900094867E0,-2.065792084E0,5.039634705E-1,2.851637532E0
2.809178333E0,1.871995091E0,-1.969275355E0,4.685332775E-1,2.757160583E0
2.811335520E0,1.842673659E0,-1.886197686E0,4.294379354E-1,2.671629627E0
2.813492708E0,1.807243466E0,-1.811672211E0,3.866774142E-1,2.588011702E0
2.815649843E0,1.766926408E0,-1.749364018E0,3.426951468E-1,2.509928956E0
2.817807031E0,1.724165797E0,-1.677281976E0,2.950477004E-1,2.423442937E0
2.819964218E0,1.677740097E0,-1.600312948E0,2.474002391E-1,2.331741890E0
2.822121406E0,1.628870964E0,-1.527009249E0,1.985310465E-1,2.241515657E0
2.824278593E0,1.576336622E0,-1.452483773E0,1.521053314E-1,2.148879310E0
2.826435729E0,1.521358728E0,-1.380401731E0,1.069013327E-1,2.057053527E0
2.828592968E0,1.465159178E0,-1.316871762E0,6.536252797E-2,1.971069485E0
2.830750104E0,1.410181284E0,-1.266780853E0,2.993237413E-2,1.895848341E0
2.832907291E0,1.356425285E0,-1.226463795E0,-3.054323839E-3,1.828691424E0
2.835064479E0,1.300225735E0,-1.194698811E0,-3.115410358E-2,1.766030234E0
2.837221666E0,1.248913050E0,-1.170264244E0,-5.803215504E-2,1.712503996E0
2.839378854E0,1.201265574E0,-1.140942693E0,-8.124501258E-2,1.658731430E0
2.841535989E0,1.153618097E0,-1.115286350E0,-1.069013327E-1,1.608143729E0
2.843693176E0,1.110857606E0,-1.082299709E0,-1.325576603E-1,1.556582415E0
2.845850364E0,1.065653563E0,-1.056643367E0,-1.582139730E-1,1.509021001E0
2.848007551E0,1.020449638E0,-1.021213174E0,-1.850920320E-1,1.455490595E0
2.850164739E0,9.728021622E-1,-9.955568910E-1,-2.119700760E-1,1.407980427E0
2.852321874E0,9.300416112E-1,-9.564615488E-1,-2.449567765E-1,1.356392242E0
2.854479114E0,8.909462690E-1,-9.198096395E-1,-2.791652083E-1,1.310636578E0
2.856636249E0,8.518509269E-1,-8.807142973E-1,-3.133736253E-1,1.264717638E0
2.858793437E0,8.127555847E-1,-8.477275968E-1,-3.488037884E-1,1.225103180E0
2.860950624E0,7.785471678E-1,-8.061888218E-1,-3.817904890E-1,1.183993280E0
2.863107812E0,7.443387508E-1,-7.793107629E-1,-4.111120105E-1,1.153420360E0
2.865264947E0,7.150171995E-1,-7.524327040E-1,-4.355465770E-1,1.125657759E0
2.867422135E0,6.881392002E-1,-7.341067195E-1,-4.563159943E-1,1.104840496E0
2.869579322E0,6.624828577E-1,-7.292198539E-1,-4.709767401E-1,1.092000102E0
2.871736510E0,6.453786492E-1,-7.292198539E-1,-4.795288444E-1,1.085459860E0
2.873893697E0,6.307178736E-1,-7.377719283E-1,-4.880809486E-1,1.086432449E0
2.876050885E0,6.246092319E-1,-7.512109876E-1,-4.929678738E-1,1.094290622E0
2.878208020E0,6.233875155E-1,-7.683151960E-1,-4.990765154E-1,1.108150533E0
2.880365208E0,6.270527244E-1,-7.878628373E-1,-5.064069033E-1,1.127107325E0
2.882522395E0,6.368265152E-1,-8.098539710E-1,-5.137372613E-1,1.151233008E0
2.884679583E0,6.502655745E-1,-8.416189551E-1,-5.210676789E-1,1.184347630E0
2.886836718E0,6.673697829E-1,-8.746056557E-1,-5.296197534E-1,1.220989174E0
2.888993958E0,6.893609166E-1,-9.161444306E-1,-5.357283950E-1,1.265521238E0
2.891151093E0,7.137954831E-1,-9.650136232E-1,-5.406153202E-1,1.316442254E0
2.893308281E0,7.418952584E-1,-1.012661099E0,-5.430588126E-1,1.367773355E0
2.895465468E0,7.663298845E-1,-1.074969292E0,-5.442805290E-1,1.427957200E0
2.897622656E0,7.956513762E-1,-1.129947066E0,-5.442805290E-1,1.485288787E0
2.899779791E0,8.274163604E-1,-1.187368393E0,-5.442805290E-1,1.546189778E0
2.901936979E0,8.579595685E-1,-1.249676585E0,-5.418370366E-1,1.609774383E0
2.904094166E0,8.909462690E-1,-1.297324061E0,-5.345066786E-1,1.662086750E0
2.906251354E0,9.227112532E-1,-1.348636746E0,-5.283980370E-1,1.717388021E0
2.908408541E0,9.520327449E-1,-1.399949312E0,-5.222893953E-1,1.771725328E0
2.910565676E0,9.752455950E-1,-1.454927206E0,-5.112938285E-1,1.824647507E0
2.912722916E0,9.947932959E-1,-1.487913847E0,-4.978547990E-1,1.857783819E0
2.914880051E0,1.007010579E0,-1.522122264E0,-4.856374860E-1,1.888589490E0
2.917037239E0,1.013119221E0,-1.535561323E0,-4.721984863E-1,1.899297381E0
2.919194426E0,1.009454012E0,-1.538004756E0,-4.563159943E-1,1.895436709E0
2.921351562E0,1.002123713E0,-1.508683324E0,-4.428769648E-1,1.864542119E0
2.923508749E0,9.886846542E-1,-1.476918340E0,-4.245510101E-1,1.827300930E0
2.925665937E0,9.703587294E-1,-1.423162222E0,-4.062250853E-1,1.769747325E0
2.927823124E0,9.495893121E-1,-1.366962671E0,-3.866774142E-1,1.708749902E0
2.929980312E0,9.263764620E-1,-1.304654479E0,-3.659079969E-1,1.641397368E0
2.932137499E0,8.994984031E-1,-1.248454928E0,-3.451386094E-1,1.576977408E0
2.934294687E0,8.762855530E-1,-1.186146736E0,-3.231474757E-1,1.509716775E0
2.936451822E0,8.530726433E-1,-1.115286350E0,-3.011563420E-1,1.436068146E0
2.938609010E0,8.249728680E-1,-1.054199934E0,-2.755000293E-1,1.366681382E0
2.940766197E0,7.919861674E-1,-9.870047569E-1,-2.535088956E-1,1.290615063E0
2.942923385E0,7.406735420E-1,-9.002619982E-1,-2.437350452E-1,1.190997789E0
2.945080572E0,6.893609166E-1,-8.318451047E-1,-2.449567765E-1,1.107785437E0
2.947237708E0,6.429351568E-1,-7.903063297E-1,-2.559523284E-1,1.050457665E0
2.949394895E0,6.062833071E-1,-7.536544204E-1,-2.730565667E-1,1.005054388E0
2.951552083E0,5.745183229E-1,-7.451022863E-1,-2.913824916E-1,9.849631856E-1
2.953709270E0,5.488619804E-1,-7.353284955E-1,-3.121519089E-1,9.692245788E-1
2.955866458E0,5.232056975E-1,-7.365502119E-1,-3.378082216E-1,9.645542033E-1
2.958023593E0,4.999928176E-1,-7.499892116E-1,-3.622428179E-1,9.714404224E-1
2.960180833E0,4.816668928E-1,-7.585413456E-1,-3.866774142E-1,9.782164337E-1
2.962337968E0,4.621191919E-1,-7.793107629E-1,-4.050033391E-1,9.924248673E-1
2.964495156E0,4.486801922E-1,-8.000801206E-1,-4.208858311E-1,1.009250711E0
2.966652343E0,4.376846254E-1,-8.391754627E-1,-4.282162189E-1,1.038822612E0
2.968809531E0,4.364628792E-1,-8.843795061E-1,-4.294379354E-1,1.075659749E0
2.970966666E0,4.401280880E-1,-9.234748483E-1,-4.233292937E-1,1.107125205E0
2.973123854E0,4.474584460E-1,-9.699005485E-1,-4.111120105E-1,1.144525762E0
2.975281041E0,4.645626545E-1,-1.027321815E0,-3.940077722E-1,1.194341114E0
2.977438229E0,4.853320718E-1,-1.073747516E0,-3.707949221E-1,1.235301510E0
2.979595416E0,5.097666383E-1,-1.126281977E0,-3.451386094E-1,1.283547341E0
2.981752604E0,5.403099060E-1,-1.162933826E0,-3.170388341E-1,1.320932815E0
2.983909791E0,5.708531141E-1,-1.215468168E0,-2.803869247E-1,1.371806464E0
2.986066926E0,6.062833071E-1,-1.253341794E0,-2.437350452E-1,1.413453881E0
2.988224114E0,6.466003656E-1,-1.300989270E0,-2.009745091E-1,1.466647833E0
2.990381301E0,6.881392002E-1,-1.338862896E0,-1.545487940E-1,1.513266250E0
2.992538489E0,7.333431840E-1,-1.376736522E0,-1.032361463E-1,1.563282885E0
2.994695624E0,7.809906006E-1,-1.417053580E0,-4.703658819E-2,1.618703064E0
2.996852812E0,8.310815096E-1,-1.447596788E0,1.282816008E-2,1.669250580E0
2.999009999E0,8.823941946E-1,-1.463479280E0,7.269290835E-2,1.710460575E0
3.001167187E0,9.239329696E-1,-1.475696564E0,1.301141977E-1,1.745927314E0
3.003324374E0,9.618065953E-1,-1.480583549E0,1.850920320E-1,1.775234810E0
3.005481510E0,9.850194454E-1,-1.470809698E0,2.351829410E-1,1.785736680E0
3.007638697E0,9.911280870E-1,-1.446375132E0,2.803869247E-1,1.775655579E0
3.009795885E0,9.825760126E-1,-1.412166595E0,3.194822669E-1,1.749782567E0
3.011953072E0,9.618065953E-1,-1.365740895E0,3.512472510E-1,1.706954818E0
3.014110260E0,9.300416112E-1,-1.308319688E0,3.744601011E-1,1.648301602E0
3.016267447E0,8.885028362E-1,-1.241124511E0,3.915643096E-1,1.575801367E0
3.018424583E0,8.396336436E-1,-1.162933826E0,4.025598764E-1,1.489783271E0
3.020581770E0,7.858775258E-1,-1.087186575E0,4.074468017E-1,1.401995375E0
3.022738958E0,7.260127664E-1,-1.000443816E0,4.050033391E-1,1.300772874E0
3.024896145E0,6.624828577E-1,-9.173662066E-1,4.001164436E-1,1.200223922E0
3.027053281E0,5.977311730E-1,-8.391754627E-1,3.940077722E-1,1.103059444E0
3.029210468E0,5.280926228E-1,-7.646499872E-1,3.878991306E-1,1.006994119E0
3.031367656E0,4.608974755E-1,-6.986765862E-1,3.854556680E-1,9.214941817E-1
3.033524843E0,3.973675370E-1,-6.436987519E-1,3.830122054E-1,8.479076554E-1
3.035682031E0,3.436114490E-1,-5.887209177E-1,3.866774142E-1,7.836967331E-1
3.037839218E0,2.971857190E-1,-5.447386503E-1,3.903425932E-1,7.330940518E-1
3.039996354E0,2.605338395E-1,-5.080868006E-1,3.940077722E-1,6.937378489E-1
3.042153541E0,2.324340492E-1,-4.702131748E-1,3.976729810E-1,6.582323426E-1
3.044310729E0,2.104429156E-1,-4.421133697E-1,4.001164436E-1,6.323318914E-1
3.046467916E0,1.982256174E-1,-4.091266990E-1,4.037816226E-1,6.080441185E-1
3.048625051E0,1.908952445E-1,-3.822486401E-1,4.037816226E-1,5.878729590E-1
3.050782239E0,1.933387071E-1,-3.590357602E-1,3.964512348E-1,5.687355399E-1
3.052939479E0,1.994473487E-1,-3.455967605E-1,3.878991306E-1,5.564908816E-1
3.055096614E0,2.116646469E-1,-3.321577311E-1,3.805687428E-1,5.476890076E-1
3.057253801E0,2.312123179E-1,-3.126100600E-1,3.769035637E-1,5.415168344E-1
3.059410989E0,2.519817352E-1,-2.918406427E-1,3.744601011E-1,5.374812768E-1
3.061568124E0,2.776380479E-1,-2.551887631E-1,3.793470263E-1,5.348909766E-1
3.063725364E0,2.996291816E-1,-2.197586000E-1,3.903425932E-1,5.389237690E-1
3.065882499E0,3.228420317E-1,-1.953240186E-1,4.013381600E-1,5.508636568E-1
3.068039687E0,3.570504785E-1,-2.063195854E-1,4.269944727E-1,5.936135909E-1
3.070196874E0,4.083631039E-1,-2.283107042E-1,4.563159943E-1,6.535369071E-1
3.072354062E0,4.767799675E-1,-2.686277926E-1,4.880809486E-1,7.332823745E-1
3.074511197E0,5.549706817E-1,-2.955058515E-1,5.161807537E-1,8.134855477E-1
3.076668385E0,6.392700076E-1,-3.455967605E-1,5.406153202E-1,9.057417888E-1
3.078825572E0,7.333431840E-1,-4.005745649E-1,5.613847375E-1,1.006680203E0
3.080982760E0,8.310815096E-1,-4.604393244E-1,5.797106624E-1,1.112998337E0
3.083139947E0,9.275981784E-1,-5.349648595E-1,5.955931544E-1,1.225298734E0
3.085297083E0,1.022893071E0,-6.070469022E-1,6.126973629E-1,1.337988877E0
3.087454270E0,1.114522815E0,-6.864593029E-1,6.273581386E-1,1.451539084E0
3.089611458E0,1.206152558E0,-7.634282708E-1,6.432406306E-1,1.565690016E0
3.091768645E0,1.289230108E0,-8.575014472E-1,6.579013467E-1,1.682336823E0
3.093925833E0,1.368642569E0,-9.601266980E-1,6.725621223E-1,1.802044829E0
3.096082968E0,1.439502835E0,-1.062752008E0,6.921098232E-1,1.918495830E0
3.098240208E0,1.495702386E0,-1.162933826E0,7.177661061E-1,2.026013054E0
3.100397343E0,1.539684653E0,-1.260672212E0,7.519745231E-1,2.127296157E0
3.102554531E0,1.569006205E0,-1.360854030E0,7.935133576E-1,2.223368527E0
3.104711718E0,1.587332129E0,-1.458592415E0,8.411607742E-1,2.314015248E0
3.106868854E0,1.595884204E0,-1.553887248E0,8.863648176E-1,2.397301517E0
3.109026093E0,1.592218995E0,-1.641851783E0,9.315688014E-1,2.469546322E0
3.111183229E0,1.583666921E0,-1.705381751E0,9.767727852E-1,2.523967691E0
3.113340416E0,1.565340996E0,-1.732259750E0,1.019533277E0,2.547638981E0
3.115497604E0,1.542128086E0,-1.735924959E0,1.076954603E0,2.559575300E0
3.117654739E0,1.510363221E0,-1.706603527E0,1.142928004E0,2.549505262E0
3.119811926E0,1.471267819E0,-1.654069066E0,1.211344838E0,2.523475736E0
3.121969114E0,1.421176910E0,-1.570991516E0,1.278540015E0,2.474352991E0
3.124126301E0,1.368642569E0,-1.461035848E0,1.346956849E0,2.412903020E0
3.126283489E0,1.311221242E0,-1.332754254E0,1.416595459E0,2.345693446E0
3.128440676E0,1.252578259E0,-1.183703184E0,1.481347084E0,2.272552465E0
3.130597812E0,1.198822141E0,-1.004109025E0,1.543655276E0,2.197334993E0
3.132755051E0,1.146287799E0,-8.147408962E-1,1.601076603E0,2.131014954E0
3.134912187E0,1.101083755E0,-6.143772602E-1,1.656054378E0,2.081432429E0
3.137069374E0,1.068097115E0,-4.115701318E-1,1.708588839E0,2.056574151E0
3.139226562E0,1.039997339E0,-2.222020626E-1,1.757457972E0,2.054173007E0
3.141383697E0,1.014340997E0,-4.749473557E-2,1.801440239E0,2.067928998E0
3.143540885E0,1.003345370E0,8.811724186E-2,1.838092089E0,2.095960187E0
3.145698072E0,1.041218996E0,7.956513762E-2,1.880852699E0,2.151296001E0
3.147855260E0,1.113301039E0,-6.582067907E-2,1.926056623E0,2.225638264E0
3.150012447E0,1.072983980E0,2.738201320E-1,1.944382548E0,2.237609345E0
3.152169635E0,1.113301039E0,2.567159235E-1,1.982256174E0,2.287942702E0
3.154326770E0,1.198822141E0,1.211039424E-1,2.016464710E0,2.349036104E0
3.156483958E0,1.262352109E0,6.856957078E-2,2.034790516E0,2.395538995E0
3.158641145E0,1.312443018E0,6.490438432E-2,2.038455725E0,2.425287817E0
3.160798333E0,1.353981733E0,2.580903657E-2,2.033568859E0,2.443222246E0
3.162955520E0,1.400407553E0,-4.993819445E-2,2.023795128E0,2.461581170E0
3.165112708E0,1.432172418E0,-1.537852138E-1,1.999360442E0,2.464185444E0
3.167269895E0,1.405294418E0,-2.014326602E-1,1.957821608E0,2.418365763E0
3.169427031E0,1.419955134E0,-3.504836559E-1,1.912617683E0,2.407741219E0
3.171584218E0,1.450498462E0,-5.068650246E-1,1.858861566E0,2.411684942E0
3.173741406E0,1.495702386E0,-6.644681692E-1,1.803883672E0,2.435701106E0
3.175898541E0,1.556788921E0,-8.171843290E-1,1.745240688E0,2.477346773E0
3.178055729E0,1.623983979E0,-9.454659820E-1,1.676823854E0,2.518524990E0
3.180212916E0,1.700953007E0,-1.061530232E0,1.602298260E0,2.566602283E0
3.182370104E0,1.774256706E0,-1.144607902E0,1.519220710E0,2.601181592E0
3.184527291E0,1.851225734E0,-1.192255378E0,1.428812742E0,2.624883894E0
3.186684426E0,1.920864344E0,-1.208137870E0,1.332296133E0,2.631412154E0
3.188841666E0,1.996611476E0,-1.186146736E0,1.229670763E0,2.627830217E0
3.190998801E0,2.067471743E0,-1.137277484E0,1.124602079E0,2.613918384E0
3.193155989E0,2.133445263E0,-1.070082426E0,1.014646411E0,2.593486539E0
3.195313176E0,2.193310022E0,-9.845613241E-1,9.083559513E-1,2.570035095E0
3.197470312E0,2.244622707E0,-8.941532969E-1,8.057306409E-1,2.546967429E0
3.199627499E0,2.286161423E0,-8.037453294E-1,7.116574645E-1,2.525667625E0
3.201784687E0,2.317926407E0,-7.292198539E-1,6.298015714E-1,2.510218007E0
3.203941874E0,2.336252451E0,-6.644681692E-1,5.589412451E-1,2.492390174E0
3.206099062E0,2.347247839E0,-6.217076182E-1,5.002982616E-1,2.479191628E0
3.208256249E0,2.344804525E0,-6.033816934E-1,4.465421438E-1,2.462027136E0
3.210413437E0,2.336252451E0,-5.948295593E-1,3.988946974E-1,2.443565980E0
3.212570624E0,2.317926407E0,-6.070469022E-1,3.512472510E-1,2.421706712E0
3.214727760E0,2.289826632E0,-6.375901103E-1,3.035998046E-1,2.396247064E0
3.216884947E0,2.256839991E0,-6.766854525E-1,2.510654330E-1,2.369443774E0
3.219042083E0,2.215301037E0,-7.402154207E-1,1.924224049E-1,2.343609169E0
3.221199322E0,2.170097113E0,-8.196278214E-1,1.276707351E-1,2.323232890E0
3.223356458E0,2.113897562E0,-9.173662066E-1,5.314523727E-2,2.304983314E0
3.225513645E0,2.055254459E0,-1.037095666E0,-2.626718581E-2,2.302244183E0
3.227670833E0,1.989281178E0,-1.166599035E0,-1.142317131E-1,2.308948201E0
3.229828020E0,1.917199135E0,-1.322980404E0,-2.083048970E-1,2.338657863E0
3.231985156E0,1.843895316E0,-1.484248757E0,-3.072649837E-1,2.386913505E0
3.234142395E0,1.769369841E0,-1.639408350E0,-4.086685479E-1,2.446495320E0
3.236299531E0,1.693622589E0,-1.787237644E0,-5.100721121E-1,2.514507791E0
3.238456718E0,1.619097114E0,-1.928958297E0,-6.078104377E-1,2.590712084E0
3.240613854E0,1.543349862E0,-2.079231024E0,-6.921098232E-1,2.680325811E0
3.242771041E0,1.471267819E0,-2.218508244E0,-7.629700899E-1,2.769211292E0
3.244928281E0,1.405294418E0,-2.363893986E0,-8.216131330E-1,2.870173395E0
3.247085416E0,1.346651435E0,-2.505614519E0,-8.692606091E-1,2.974422333E0
3.249242604E0,1.297782183E0,-2.648556948E0,-9.083559513E-1,3.086130754E0
3.251399739E0,1.259908557E0,-2.784168959E0,-9.413426518E-1,3.197669831E0
3.253556926E0,1.236695766E0,-2.908785343E0,-9.694424272E-1,3.306095463E0
3.255714114E0,1.229365349E0,-3.021184444E0,-9.975422025E-1,3.410862802E0
3.257871301E0,1.230587125E0,-3.139692307E0,-1.020755053E0,3.523344055E0
3.260028489E0,1.242804408E0,-3.231322050E0,-1.045189619E0,3.616410697E0
3.262185676E0,1.262352109E0,-3.300960541E0,-1.069624186E0,3.692420512E0
3.264342812E0,1.284343243E0,-3.348608017E0,-1.097723961E0,3.750694750E0
3.266499999E0,1.314886451E0,-3.333947182E0,-1.129488945E0,3.757642275E0
3.268657187E0,1.344208002E0,-3.297295332E0,-1.164919138E0,3.746476779E0
3.270814374E0,1.375972867E0,-3.236208916E0,-1.205236197E0,3.717383995E0
3.272971562E0,1.411403060E0,-3.145800829E0,-1.250440240E0,3.667658960E0
3.275128697E0,1.444389820E0,-3.039510489E0,-1.300531149E0,3.607806429E0
3.277285937E0,1.479819894E0,-2.941771984E0,-1.354287267E0,3.560615582E0
3.279443072E0,1.518915296E0,-2.851364136E0,-1.416595459E0,3.527622968E0
3.281600260E0,1.558010578E0,-2.775616884E0,-1.480125308E0,3.510301551E0
3.283757447E0,1.588553905E0,-2.703534842E0,-1.546098709E0,3.496144357E0
3.285914635E0,1.603214622E0,-2.632674456E0,-1.608407021E0,3.476815361E0
3.288071822E0,1.603214622E0,-2.576474905E0,-1.664606571E0,3.461132054E0
3.290228958E0,1.593440771E0,-2.533714294E0,-1.713475704E0,3.448878166E0
3.292386145E0,1.570227861E0,-2.494619131E0,-1.755014539E0,3.430570824E0
3.294543333E0,1.533576012E0,-2.457967043E0,-1.786779523E0,3.403827027E0
3.296700520E0,1.482263446E0,-2.431089163E0,-1.807548881E0,3.372615068E0
3.298857656E0,1.427285552E0,-2.418871880E0,-1.824653149E0,3.349245337E0
3.301014843E0,1.362533927E0,-2.416428328E0,-1.835648656E0,3.326444130E0
3.303172031E0,1.292895317E0,-2.418871880E0,-1.840535522E0,3.303042609E0
3.305329218E0,1.217148066E0,-2.417649984E0,-1.839313865E0,3.272545852E0
3.307486406E0,1.135292172E0,-2.416428328E0,-1.828318238E0,3.235855646E0
3.309643541E0,1.050992846E0,-2.418871880E0,-1.812435746E0,3.200070385E0
3.311800729E0,9.618065953E-1,-2.404211044E0,-1.785557747E0,3.145396500E0
3.313957916E0,8.665117025E-1,-2.382220030E0,-1.746462345E0,3.078302377E0
3.316115104E0,7.724385262E-1,-2.346789837E0,-1.697593212E0,2.997650168E0
3.318272291E0,6.795870662E-1,-2.307694435E0,-1.632841587E0,2.907484107E0
3.320429426E0,5.904008150E-1,-2.256381750E0,-1.555872560E0,2.803671012E0
3.322586614E0,5.073232055E-1,-2.196516991E0,-1.465464592E0,2.688800884E0
3.324743801E0,4.352411628E-1,-2.121991634E0,-1.364060998E0,2.559872218E0
3.326900989E0,3.692677617E-1,-2.034027100E0,-1.252883673E0,2.417300647E0
3.329058176E0,3.155116439E-1,-1.925293088E0,-1.136819363E0,2.258021110E0
3.331215312E0,2.727511227E-1,-1.799454927E0,-1.018311620E0,2.085519064E0
3.333372499E0,2.360992432E-1,-1.654069066E0,-9.022472501E-1,1.898877939E0
3.335529687E0,2.079994529E-1,-1.483026981E0,-7.898481488E-1,1.693072030E0
3.337686874E0,1.896735132E-1,-1.308319688E0,-6.823359728E-1,1.487702533E0
3.339844062E0,1.798996776E-1,-1.117729783E0,-5.797106624E-1,1.271907313E0
3.342001197E0,1.676823795E-1,-9.344704151E-1,-4.819723070E-1,1.064729845E0
3.344158385E0,1.566868126E-1,-7.622065544E-1,-3.891208768E-1,8.700141640E-1
3.346315572E0,1.432477981E-1,-6.168206930E-1,-3.023780584E-1,7.017265772E-1
3.348472760E0,1.334739476E-1,-4.860956371E-1,-2.229656428E-1,5.511968260E-1
3.350629895E0,1.188132018E-1,-3.529271185E-1,-1.459966749E-1,3.999864460E-1
3.352787083E0,9.804379940E-2,-2.099847645E-1,-5.436696485E-2,2.380377171E-1
3.354944270E0,7.238747925E-2,-1.354592592E-1,3.848448023E-2,1.583357612E-1
3.357101458E0,4.306596518E-2,-1.281288862E-1,1.276707351E-1,1.859341428E-1
3.359258645E0,7.635809947E-3,-1.427896470E-1,2.095266134E-1,2.536702398E-1
3.361415833E0,-4.245510325E-2,-1.562286615E-1,2.852738500E-1,3.280106705E-1
3.363572968E0,-1.023198515E-1,-1.488982886E-1,3.500255048E-1,3.939008840E-1
3.365730156E0,-1.744018942E-1,-1.464548260E-1,4.037816226E-1,4.635780792E-1
3.367887343E0,-2.574795187E-1,-1.440113783E-1,4.526508152E-1,5.403033779E-1
3.370044531E0,-3.454440236E-1,-1.391244531E-1,4.880809486E-1,6.139301257E-1
3.372201718E0,-4.395172000E-1,-1.452330947E-1,5.186241865E-1,6.951539885E-1
3.374358854E0,-5.311469436E-1,-1.488982886E-1,5.381718874E-1,7.706599486E-1
3.376516041E0,-6.239983439E-1,-1.537852138E-1,5.479456782E-1,8.445521248E-1
3.378673229E0,-7.119628787E-1,-1.586721241E-1,5.467239618E-1,9.115783423E-1
3.380830416E0,-7.913753390E-1,-1.501200199E-1,5.345066786E-1,9.666997140E-1
3.382987551E0,-8.659008145E-1,-1.501200199E-1,5.125155449E-1,1.017345774E0
3.385144739E0,-9.343177080E-1,-1.562286615E-1,4.795288444E-1,1.061746150E0
3.387301926E0,-9.954041839E-1,-1.330158114E-1,4.392117858E-1,1.096097481E0
3.389459114E0,-1.054047227E0,-1.085812151E-1,3.927860558E-1,1.130082441E0
3.391616301E0,-1.106581569E0,-5.726857483E-2,3.439168632E-1,1.160207424E0
3.393773489E0,-1.155450702E0,-1.206457894E-2,2.913824916E-1,1.191686047E0
3.395930624E0,-1.189659119E0,3.802633286E-2,2.364046723E-1,1.213516374E0
3.398087812E0,-1.223867536E0,9.300415963E-2,1.826485693E-1,1.240911769E0
3.400244999E0,-1.244637012E0,1.430950761E-1,1.288924664E-1,1.259448594E0
3.402402187E0,-1.259297729E0,1.882990748E-1,7.757982612E-2,1.275659022E0
3.404559374E0,-1.265406370E0,2.322813272E-1,2.871064469E-2,1.286869146E0
3.406716510E0,-1.261741161E0,2.713766694E-1,-1.771507785E-2,1.290716808E0
3.408873697E0,-1.248302221E0,3.239110410E-1,-6.291907281E-2,1.291176056E0
3.411030885E0,-1.226311088E0,3.752236962E-1,-1.069013327E-1,1.286879793E0
3.413188072E0,-1.200654745E0,4.350884259E-1,-1.447749585E-1,1.285236766E0
3.415345260E0,-1.166446328E0,5.083922148E-1,-1.753181964E-1,1.284443907E0
3.417502395E0,-1.131016135E0,5.731438994E-1,-1.997527778E-1,1.283585837E0
3.419659583E0,-1.094364285E0,6.513345838E-1,-2.193004489E-1,1.292270334E0
3.421816770E0,-1.057712317E0,7.429642677E-1,-2.302960157E-1,1.312930883E0
3.423973958E0,-1.027169108E0,8.297070861E-1,-2.315177470E-1,1.340556113E0
3.426131145E0,-9.929606915E-1,9.323323965E-1,-2.278525680E-1,1.380989292E0
3.428288281E0,-9.648609161E-1,1.030070782E0,-2.144135386E-1,1.427576817E0
3.430445468E0,-9.379828572E-1,1.125365615E0,-1.887572110E-1,1.477121827E0
3.432602656E0,-9.135482907E-1,1.212108493E0,-1.594357044E-1,1.526170771E0
3.434759791E0,-8.903354406E-1,1.276860118E0,-1.240055487E-1,1.561552540E0
3.436917031E0,-8.720094562E-1,1.348942161E0,-8.002328873E-2,1.608244127E0
3.439074166E0,-8.585704565E-1,1.402698278E0,-3.604102135E-2,1.644993813E0
3.441231354E0,-8.426879644E-1,1.468671679E0,3.054323839E-3,1.693259825E0
3.443388541E0,-8.304706812E-1,1.517540812E0,4.092793912E-2,1.730400753E0
3.445545729E0,-8.206968307E-1,1.571296930E0,8.002328873E-2,1.774519951E0
3.447702864E0,-8.121446967E-1,1.617722631E0,1.142317131E-1,1.813740445E0
3.449860104E0,-8.011491299E-1,1.667813540E0,1.459966749E-1,1.856005647E0
3.452017239E0,-7.938187718E-1,1.703243732E0,1.789833754E-1,1.887649995E0
3.454174426E0,-7.864884138E-1,1.732565284E0,2.083048970E-1,1.914089187E0
3.456331614E0,-7.742711306E-1,1.760665059E0,2.351829410E-1,1.937717278E0
3.458488801E0,-7.681624889E-1,1.774103999E0,2.571740746E-1,1.950296673E0
3.460645937E0,-7.596103549E-1,1.780212641E0,2.755000293E-1,1.955010282E0
3.462803124E0,-7.498365045E-1,1.767995358E0,2.852738500E-1,1.941505482E0
3.464960312E0,-7.376192212E-1,1.753334641E0,2.926042378E-1,1.924547147E0
3.467117447E0,-7.302888632E-1,1.736230373E0,3.097084463E-1,1.908857526E0
3.469274635E0,-7.180715203E-1,1.710574150E0,3.341430426E-1,1.885031088E0
3.471431822E0,-7.082977295E-1,1.699578524E0,3.475820720E-1,1.873783907E0
3.473589010E0,-6.973021626E-1,1.699578524E0,3.524689674E-1,1.870569923E0
3.475746197E0,-6.850848794E-1,1.695913315E0,3.451386094E-1,1.861339282E0
3.477903385E0,-6.801979542E-1,1.694691658E0,3.280344009E-1,1.855331679E0
3.480060520E0,-6.716458201E-1,1.682474375E0,2.974911332E-1,1.835845610E0
3.482217760E0,-6.679806113E-1,1.645822406E0,2.583957911E-1,1.794908876E0
3.484374895E0,-6.582068205E-1,1.598174930E0,2.119700760E-1,1.741358848E0
3.486532083E0,-6.496546865E-1,1.544418931E0,1.643226296E-1,1.683532884E0
